session	participant	TrialNumber	sf	ori	ran	order	RT	choice
001	Nobody	1	2.0	90	1.0	0.0	1.5457343	0.0
001	Nobody	2	2.0	120	1.0	1.0	1.9826176	0.0
001	Nobody	3	0.5	90	1.0	2.0	0.81639	0.0
001	Nobody	4	1.0	120	1.0	3.0	1.2595563	0.0
001	Nobody	5	1.0	90	1.0	4.0	1.2192149	0.0
001	Nobody	6	2.0	150	1.0	5.0	1.4680611	0.0
001	Nobody	7	0.5	150	1.0	6.0	0.749799	0.0
001	Nobody	8	1.0	150	1.0	7.0	0.5641579	0.0
001	Nobody	9	0.5	120	1.0	8.0	1.1565039	1.0
001	Nobody	10	2.0	150	1.0	9.0	1.8002996	1.0
001	Nobody	11	2.0	120	1.0	10.0	1.880856	1.0
001	Nobody	12	2.0	90	1.0	11.0	1.9034762	0.0
001	Nobody	13	1.0	120	1.0	12.0	0.5331263	1.0
001	Nobody	14	0.5	150	1.0	13.0	0.9085622	0.0
001	Nobody	15	1.0	150	1.0	14.0	0.6425089	0.0
001	Nobody	16	1.0	90	1.0	15.0	0.9353056	1.0
001	Nobody	17	0.5	90	1.0	16.0	0.31178916	0.0
001	Nobody	18	0.5	120	1.0	17.0	1.1169022	1.0
001	Nobody	19	2.0	150	1.0	18.0	1.7329729	0.0
001	Nobody	20	1.0	90	1.0	19.0	1.229751	1.0
001	Nobody	21	0.5	120	1.0	20.0	0.86509484	1.0
001	Nobody	22	1.0	120	1.0	21.0	0.69209284	0.0
001	Nobody	23	0.5	90	1.0	22.0	1.0181087	0.0
001	Nobody	24	2.0	120	1.0	23.0	1.0109459	0.0
001	Nobody	25	0.5	150	1.0	24.0	0.5110512	0.0
001	Nobody	26	2.0	90	1.0	25.0	1.951822	0.0
001	Nobody	27	1.0	150	1.0	26.0	1.0678259	0.0
001	Nobody	28	1.0	120	1.0	27.0	0.52839994	1.0
001	Nobody	29	1.0	90	1.0	28.0	1.4711119	0.0
001	Nobody	30	0.5	150	1.0	29.0	1.181865	0.0
001	Nobody	31	2.0	120	1.0	30.0	1.1348494	1.0
001	Nobody	32	2.0	90	1.0	31.0	1.469946	0.0
001	Nobody	33	1.0	150	1.0	32.0	0.87584615	1.0
001	Nobody	34	0.5	90	1.0	33.0	1.0707587	0.0
001	Nobody	35	2.0	150	1.0	34.0	1.0329955	1.0
001	Nobody	36	0.5	120	1.0	35.0	0.5602454	1.0
001	Nobody	37	2.0	90	1.0	36.0	1.3652691	1.0
001	Nobody	38	0.5	120	1.0	37.0	0.673513	0.0
001	Nobody	39	2.0	120	1.0	38.0	1.2865225	1.0
001	Nobody	40	1.0	150	1.0	39.0	1.3068871	0.0
001	Nobody	41	0.5	90	1.0	40.0	1.097123	0.0
001	Nobody	42	1.0	90	1.0	41.0	1.2836074	1.0
001	Nobody	43	0.5	150	1.0	42.0	0.6370927	0.0
001	Nobody	44	2.0	150	1.0	43.0	1.8662031	1.0
001	Nobody	45	1.0	120	1.0	44.0	1.4211532	1.0
001	Nobody	46	1.0	150	1.0	45.0	1.0936648	0.0
001	Nobody	47	0.5	150	1.0	46.0	0.9985612	0.0
001	Nobody	48	0.5	90	1.0	47.0	0.8469978	0.0
001	Nobody	49	2.0	120	1.0	48.0	1.6155318	0.0
001	Nobody	50	2.0	150	1.0	49.0	1.839571	1.0
001	Nobody	51	1.0	90	1.0	50.0	1.1666862	0.0
001	Nobody	52	1.0	120	1.0	51.0	0.9400732	1.0
001	Nobody	53	2.0	90	1.0	52.0	1.4451466	0.0
001	Nobody	54	0.5	120	1.0	53.0	0.4589736	0.0
001	Nobody	55	0.5	120	1.0	54.0	1.1933322	0.0
001	Nobody	56	2.0	120	1.0	55.0	1.4843931	0.0
001	Nobody	57	0.5	90	1.0	56.0	0.59431577	1.0
001	Nobody	58	1.0	150	1.0	57.0	0.8166464	1.0
001	Nobody	59	2.0	90	1.0	58.0	1.1450092	1.0
001	Nobody	60	2.0	150	1.0	59.0	1.1676165	1.0
001	Nobody	61	0.5	150	1.0	60.0	1.1489457	1.0
001	Nobody	62	1.0	90	1.0	61.0	1.2522006	1.0
001	Nobody	63	1.0	120	1.0	62.0	1.03365	1.0
001	Nobody	64	0.5	120	1.0	63.0	0.7193768	0.0
001	Nobody	65	1.0	90	1.0	64.0	1.1702515	1.0
001	Nobody	66	0.5	150	1.0	65.0	0.7655837	0.0
001	Nobody	67	1.0	120	1.0	66.0	1.3656876	0.0
001	Nobody	68	2.0	120	1.0	67.0	1.3419386	1.0
001	Nobody	69	2.0	150	1.0	68.0	1.6845254	1.0
001	Nobody	70	1.0	150	1.0	69.0	0.70990855	0.0
001	Nobody	71	2.0	90	1.0	70.0	1.9919755	0.0
001	Nobody	72	0.5	90	1.0	71.0	1.0104398	1.0
001	Nobody	73	0.5	150	1.0	72.0	0.6466974	1.0
001	Nobody	74	1.0	120	1.0	73.0	0.8653543	1.0
001	Nobody	75	2.0	90	1.0	74.0	1.5661958	1.0
001	Nobody	76	2.0	120	1.0	75.0	1.2341806	0.0
001	Nobody	77	2.0	150	1.0	76.0	1.9503776	1.0
001	Nobody	78	1.0	90	1.0	77.0	1.436339	0.0
001	Nobody	79	0.5	120	1.0	78.0	0.88271374	1.0
001	Nobody	80	1.0	150	1.0	79.0	0.6597619	1.0
001	Nobody	81	0.5	90	1.0	80.0	1.2006769	1.0
001	Nobody	82	2.0	120	1.0	81.0	1.284599	1.0
001	Nobody	83	0.5	90	1.0	82.0	1.1951429	1.0
001	Nobody	84	1.0	90	1.0	83.0	1.193479	1.0
001	Nobody	85	0.5	150	1.0	84.0	1.0053302	0.0
001	Nobody	86	1.0	120	1.0	85.0	1.0780314	0.0
001	Nobody	87	0.5	120	1.0	86.0	0.8438075	0.0
001	Nobody	88	2.0	150	1.0	87.0	1.59355	1.0
001	Nobody	89	1.0	150	1.0	88.0	1.0304371	0.0
001	Nobody	90	2.0	90	1.0	89.0	1.2331802	1.0
﻿session	participant	TrialNumber	sf	ori	ran	order	RT	choice
001	Nobody	1	2.0	150	1.0	0.0	1.7326727	1.0
001	Nobody	2	0.5	120	1.0	1.0	0.6812248	1.0
001	Nobody	3	1.0	120	1.0	2.0	1.2947599	1.0
001	Nobody	4	2.0	120	1.0	3.0	1.3526691	0.0
001	Nobody	5	0.5	90	1.0	4.0	0.88707024	0.0
001	Nobody	6	2.0	90	1.0	5.0	1.7890424	0.0
001	Nobody	7	0.5	150	1.0	6.0	0.880663	0.0
001	Nobody	8	1.0	90	1.0	7.0	1.2613517	1.0
001	Nobody	9	1.0	150	1.0	8.0	0.6449344	1.0
001	Nobody	10	1.0	120	1.0	9.0	0.76213115	1.0
001	Nobody	11	2.0	90	1.0	10.0	1.5558213	0.0
001	Nobody	12	0.5	120	1.0	11.0	0.46283147	1.0
001	Nobody	13	0.5	150	1.0	12.0	0.48109853	1.0
001	Nobody	14	1.0	90	1.0	13.0	0.55285394	0.0
001	Nobody	15	0.5	90	1.0	14.0	0.4184948	1.0
001	Nobody	16	2.0	150	1.0	15.0	1.2179832	1.0
001	Nobody	17	2.0	120	1.0	16.0	1.0081301	0.0
001	Nobody	18	1.0	150	1.0	17.0	1.1497504	1.0
001	Nobody	19	2.0	150	1.0	18.0	1.0079688	1.0
001	Nobody	20	1.0	150	1.0	19.0	1.4583862	0.0
001	Nobody	21	0.5	120	1.0	20.0	1.0262499	0.0
001	Nobody	22	0.5	90	1.0	21.0	0.8461452	1.0
001	Nobody	23	2.0	120	1.0	22.0	1.6937025	0.0
001	Nobody	24	2.0	90	1.0	23.0	1.1980273	0.0
001	Nobody	25	1.0	120	1.0	24.0	1.2064221	0.0
001	Nobody	26	1.0	90	1.0	25.0	1.2391175	1.0
001	Nobody	27	0.5	150	1.0	26.0	0.44677722	1.0
001	Nobody	28	0.5	150	1.0	27.0	0.35654077	0.0
001	Nobody	29	1.0	150	1.0	28.0	0.84367424	1.0
001	Nobody	30	0.5	120	1.0	29.0	0.4333602	1.0
001	Nobody	31	1.0	120	1.0	30.0	1.2274662	1.0
001	Nobody	32	1.0	90	1.0	31.0	1.3340864	0.0
001	Nobody	33	2.0	120	1.0	32.0	1.9797974	1.0
001	Nobody	34	0.5	90	1.0	33.0	1.1573128	0.0
001	Nobody	35	2.0	150	1.0	34.0	1.7006239	0.0
001	Nobody	36	2.0	90	1.0	35.0	1.6219772	0.0
001	Nobody	37	0.5	150	1.0	36.0	1.0777217	0.0
001	Nobody	38	0.5	90	1.0	37.0	0.9234259	1.0
001	Nobody	39	2.0	120	1.0	38.0	1.0012237	1.0
001	Nobody	40	0.5	120	1.0	39.0	1.2413441	0.0
001	Nobody	41	1.0	150	1.0	40.0	1.4460592	1.0
001	Nobody	42	1.0	120	1.0	41.0	1.2139472	0.0
001	Nobody	43	2.0	150	1.0	42.0	1.3606651	0.0
001	Nobody	44	1.0	90	1.0	43.0	1.1493375	1.0
001	Nobody	45	2.0	90	1.0	44.0	1.6091341	1.0
001	Nobody	46	0.5	120	1.0	45.0	0.27934128	0.0
001	Nobody	47	2.0	120	1.0	46.0	1.2679543	1.0
001	Nobody	48	2.0	90	1.0	47.0	1.707927	1.0
001	Nobody	49	1.0	90	1.0	48.0	1.2462447	0.0
001	Nobody	50	0.5	90	1.0	49.0	0.3467653	1.0
001	Nobody	51	0.5	150	1.0	50.0	0.96035457	0.0
001	Nobody	52	1.0	150	1.0	51.0	1.2473829	0.0
001	Nobody	53	2.0	150	1.0	52.0	1.9082962	1.0
001	Nobody	54	1.0	120	1.0	53.0	0.8416316	1.0
001	Nobody	55	0.5	90	1.0	54.0	0.8591143	1.0
001	Nobody	56	0.5	150	1.0	55.0	0.4097569	1.0
001	Nobody	57	1.0	90	1.0	56.0	0.5528627	1.0
001	Nobody	58	1.0	120	1.0	57.0	0.97519225	0.0
001	Nobody	59	0.5	120	1.0	58.0	1.1630315	1.0
001	Nobody	60	2.0	150	1.0	59.0	1.5407687	1.0
001	Nobody	61	1.0	150	1.0	60.0	0.7668634	0.0
001	Nobody	62	2.0	120	1.0	61.0	1.1914724	0.0
001	Nobody	63	2.0	90	1.0	62.0	1.1111125	0.0
001	Nobody	64	2.0	150	1.0	63.0	1.7861446	1.0
001	Nobody	65	2.0	90	1.0	64.0	1.5962261	1.0
001	Nobody	66	1.0	150	1.0	65.0	0.55971724	0.0
001	Nobody	67	2.0	120	1.0	66.0	1.8363601	0.0
001	Nobody	68	0.5	150	1.0	67.0	1.0205232	1.0
001	Nobody	69	0.5	120	1.0	68.0	0.67221576	1.0
001	Nobody	70	0.5	90	1.0	69.0	0.52421814	1.0
001	Nobody	71	1.0	120	1.0	70.0	1.2477145	1.0
001	Nobody	72	1.0	90	1.0	71.0	0.98848367	0.0
001	Nobody	73	2.0	90	1.0	72.0	1.9061767	0.0
001	Nobody	74	1.0	90	1.0	73.0	0.56876683	0.0
001	Nobody	75	2.0	150	1.0	74.0	1.0350947	0.0
001	Nobody	76	2.0	120	1.0	75.0	1.6006635	1.0
001	Nobody	77	1.0	120	1.0	76.0	0.5693245	0.0
001	Nobody	78	0.5	90	1.0	77.0	0.62446064	1.0
001	Nobody	79	0.5	150	1.0	78.0	1.1237341	1.0
001	Nobody	80	1.0	150	1.0	79.0	1.2180917	0.0
001	Nobody	81	0.5	120	1.0	80.0	0.9037078	1.0
001	Nobody	82	1.0	90	1.0	81.0	1.1003168	0.0
001	Nobody	83	0.5	90	1.0	82.0	0.5566166	1.0
001	Nobody	84	2.0	90	1.0	83.0	1.4706442	1.0
001	Nobody	85	0.5	120	1.0	84.0	1.0041206	1.0
001	Nobody	86	0.5	150	1.0	85.0	1.0738869	1.0
001	Nobody	87	1.0	120	1.0	86.0	0.9244972	1.0
001	Nobody	88	1.0	150	1.0	87.0	0.53282475	1.0
001	Nobody	89	2.0	150	1.0	88.0	1.6701787	0.0
001	Nobody	90	2.0	120	1.0	89.0	1.6143416	1.0
﻿session	participant	TrialNumber	sf	ori	ran	order	RT	choice
001	Nobody	1	1.0	120	1.0	0.0	0.5692576	0.0
001	Nobody	2	1.0	150	1.0	1.0	0.7547069	1.0
001	Nobody	3	0.5	120	1.0	2.0	0.8445132	0.0
001	Nobody	4	0.5	90	1.0	3.0	0.48257366	1.0
001	Nobody	5	0.5	150	1.0	4.0	0.70872444	0.0
001	Nobody	6	2.0	120	1.0	5.0	1.588787	0.0
001	Nobody	7	2.0	150	1.0	6.0	1.8708684	1.0
001	Nobody	8	1.0	90	1.0	7.0	1.4998342	0.0
001	Nobody	9	2.0	90	1.0	8.0	1.6410947	0.0
001	Nobody	10	0.5	120	1.0	9.0	0.5810222	1.0
001	Nobody	11	2.0	90	1.0	10.0	1.0114596	1.0
001	Nobody	12	0.5	90	1.0	11.0	0.33830705	1.0
001	Nobody	13	1.0	150	1.0	12.0	1.2948798	0.0
001	Nobody	14	1.0	120	1.0	13.0	1.1131893	0.0
001	Nobody	15	2.0	120	1.0	14.0	1.1649543	1.0
001	Nobody	16	2.0	150	1.0	15.0	1.5476704	0.0
001	Nobody	17	0.5	150	1.0	16.0	0.38207123	1.0
001	Nobody	18	1.0	90	1.0	17.0	0.6010875	1.0
001	Nobody	19	1.0	90	1.0	18.0	1.1309042	1.0
001	Nobody	20	0.5	120	1.0	19.0	0.54391223	0.0
001	Nobody	21	2.0	120	1.0	20.0	1.1191822	1.0
001	Nobody	22	0.5	150	1.0	21.0	1.1969193	0.0
001	Nobody	23	1.0	120	1.0	22.0	1.2773333	0.0
001	Nobody	24	2.0	90	1.0	23.0	1.6003428	1.0
001	Nobody	25	2.0	150	1.0	24.0	1.6854626	0.0
001	Nobody	26	1.0	150	1.0	25.0	1.0200909	1.0
001	Nobody	27	0.5	90	1.0	26.0	0.32024607	1.0
001	Nobody	28	1.0	120	1.0	27.0	0.6256473	0.0
001	Nobody	29	2.0	90	1.0	28.0	1.337343	1.0
001	Nobody	30	2.0	120	1.0	29.0	1.3842905	1.0
001	Nobody	31	0.5	90	1.0	30.0	0.46934816	0.0
001	Nobody	32	1.0	90	1.0	31.0	1.316412	0.0
001	Nobody	33	0.5	150	1.0	32.0	0.3852716	0.0
001	Nobody	34	1.0	150	1.0	33.0	1.2294965	1.0
001	Nobody	35	0.5	120	1.0	34.0	0.5836013	0.0
001	Nobody	36	2.0	150	1.0	35.0	1.6488149	0.0
001	Nobody	37	1.0	150	1.0	36.0	1.2243261	0.0
001	Nobody	38	2.0	120	1.0	37.0	1.3682195	0.0
001	Nobody	39	1.0	90	1.0	38.0	1.1397437	0.0
001	Nobody	40	0.5	150	1.0	39.0	1.2354274	0.0
001	Nobody	41	0.5	120	1.0	40.0	0.32989877	1.0
001	Nobody	42	2.0	150	1.0	41.0	1.304914	0.0
001	Nobody	43	0.5	90	1.0	42.0	0.5173441	1.0
001	Nobody	44	2.0	90	1.0	43.0	1.2085798	1.0
001	Nobody	45	1.0	120	1.0	44.0	1.184148	1.0
001	Nobody	46	2.0	120	1.0	45.0	1.1355101	1.0
001	Nobody	47	2.0	90	1.0	46.0	1.130659	0.0
001	Nobody	48	0.5	150	1.0	47.0	0.9994925	0.0
001	Nobody	49	1.0	120	1.0	48.0	1.0998914	1.0
001	Nobody	50	0.5	120	1.0	49.0	0.6268705	0.0
001	Nobody	51	0.5	90	1.0	50.0	0.3416086	0.0
001	Nobody	52	1.0	150	1.0	51.0	0.90298116	0.0
001	Nobody	53	1.0	90	1.0	52.0	0.63452363	0.0
001	Nobody	54	2.0	150	1.0	53.0	1.8194325	0.0
001	Nobody	55	1.0	150	1.0	54.0	1.0283161	1.0
001	Nobody	56	2.0	120	1.0	55.0	1.6080995	0.0
001	Nobody	57	1.0	120	1.0	56.0	1.3347995	1.0
001	Nobody	58	0.5	150	1.0	57.0	0.35076258	1.0
001	Nobody	59	2.0	150	1.0	58.0	1.0589789	0.0
001	Nobody	60	1.0	90	1.0	59.0	0.6447574	0.0
001	Nobody	61	0.5	90	1.0	60.0	1.0105443	1.0
001	Nobody	62	2.0	90	1.0	61.0	1.8407493	0.0
001	Nobody	63	0.5	120	1.0	62.0	0.9452974	0.0
001	Nobody	64	2.0	90	1.0	63.0	1.0684085	0.0
001	Nobody	65	2.0	120	1.0	64.0	1.3874618	1.0
001	Nobody	66	1.0	150	1.0	65.0	0.7829254	1.0
001	Nobody	67	0.5	120	1.0	66.0	0.6044479	0.0
001	Nobody	68	2.0	150	1.0	67.0	1.6949068	0.0
001	Nobody	69	0.5	90	1.0	68.0	0.45676878	1.0
001	Nobody	70	1.0	90	1.0	69.0	0.80944365	1.0
001	Nobody	71	0.5	150	1.0	70.0	1.168115	0.0
001	Nobody	72	1.0	120	1.0	71.0	1.1866626	1.0
001	Nobody	73	0.5	90	1.0	72.0	1.1446973	1.0
001	Nobody	74	1.0	90	1.0	73.0	0.7429975	0.0
001	Nobody	75	0.5	120	1.0	74.0	0.7865861	0.0
001	Nobody	76	1.0	120	1.0	75.0	0.7295179	1.0
001	Nobody	77	2.0	90	1.0	76.0	1.9312664	0.0
001	Nobody	78	0.5	150	1.0	77.0	0.70229334	0.0
001	Nobody	79	1.0	150	1.0	78.0	0.68606514	0.0
001	Nobody	80	2.0	120	1.0	79.0	1.1552504	1.0
001	Nobody	81	2.0	150	1.0	80.0	1.8969791	1.0
001	Nobody	82	0.5	150	1.0	81.0	0.7091124	0.0
001	Nobody	83	2.0	90	1.0	82.0	1.3492554	1.0
001	Nobody	84	1.0	150	1.0	83.0	0.6415702	1.0
001	Nobody	85	2.0	120	1.0	84.0	1.8340423	0.0
001	Nobody	86	0.5	90	1.0	85.0	0.9455222	0.0
001	Nobody	87	1.0	90	1.0	86.0	0.58151484	1.0
001	Nobody	88	2.0	150	1.0	87.0	1.2243341	0.0
001	Nobody	89	1.0	120	1.0	88.0	1.3292829	0.0
001	Nobody	90	0.5	120	1.0	89.0	1.1603215	1.0
﻿session	participant	TrialNumber	sf	ori	ran	order	RT	choice
001	Nobody	1	0.5	150	1.0	0.0	0.7285019	1.0
001	Nobody	2	2.0	150	1.0	1.0	1.9910972	0.0
001	Nobody	3	0.5	90	1.0	2.0	1.1606516	1.0
001	Nobody	4	1.0	150	1.0	3.0	1.1800908	1.0
001	Nobody	5	2.0	120	1.0	4.0	1.2857428	1.0
001	Nobody	6	1.0	90	1.0	5.0	1.3359832	1.0
001	Nobody	7	2.0	90	1.0	6.0	1.7629712	1.0
001	Nobody	8	0.5	120	1.0	7.0	1.040338	1.0
001	Nobody	9	1.0	120	1.0	8.0	0.735628	0.0
001	Nobody	10	2.0	150	1.0	9.0	1.6683056	1.0
001	Nobody	11	0.5	90	1.0	10.0	0.2736799	0.0
001	Nobody	12	0.5	120	1.0	11.0	1.1812265	1.0
001	Nobody	13	0.5	150	1.0	12.0	0.56905174	1.0
001	Nobody	14	2.0	90	1.0	13.0	1.6262323	1.0
001	Nobody	15	2.0	120	1.0	14.0	1.1909006	0.0
001	Nobody	16	1.0	150	1.0	15.0	0.9522355	0.0
001	Nobody	17	1.0	90	1.0	16.0	0.57626265	1.0
001	Nobody	18	1.0	120	1.0	17.0	1.4482535	0.0
001	Nobody	19	2.0	90	1.0	18.0	1.3926141	0.0
001	Nobody	20	1.0	150	1.0	19.0	1.3144599	1.0
001	Nobody	21	0.5	90	1.0	20.0	0.6780791	0.0
001	Nobody	22	1.0	90	1.0	21.0	1.0209314	1.0
001	Nobody	23	1.0	120	1.0	22.0	1.169101	0.0
001	Nobody	24	0.5	150	1.0	23.0	1.0346705	1.0
001	Nobody	25	2.0	120	1.0	24.0	1.3852825	1.0
001	Nobody	26	0.5	120	1.0	25.0	0.52079177	1.0
001	Nobody	27	2.0	150	1.0	26.0	1.3309932	1.0
001	Nobody	28	0.5	120	1.0	27.0	0.8898122	0.0
001	Nobody	29	1.0	150	1.0	28.0	0.71169794	1.0
001	Nobody	30	2.0	90	1.0	29.0	1.0010961	1.0
001	Nobody	31	0.5	150	1.0	30.0	0.8190311	0.0
001	Nobody	32	2.0	120	1.0	31.0	1.5762178	1.0
001	Nobody	33	2.0	150	1.0	32.0	1.9685532	1.0
001	Nobody	34	1.0	120	1.0	33.0	1.2522159	1.0
001	Nobody	35	0.5	90	1.0	34.0	1.0420424	0.0
001	Nobody	36	1.0	90	1.0	35.0	0.85131484	0.0
001	Nobody	37	1.0	90	1.0	36.0	0.6793117	1.0
001	Nobody	38	0.5	120	1.0	37.0	0.8212315	1.0
001	Nobody	39	2.0	90	1.0	38.0	1.9821595	1.0
001	Nobody	40	1.0	150	1.0	39.0	0.5736349	1.0
001	Nobody	41	2.0	150	1.0	40.0	1.2450762	0.0
001	Nobody	42	1.0	120	1.0	41.0	1.2108668	1.0
001	Nobody	43	0.5	90	1.0	42.0	1.1032758	0.0
001	Nobody	44	0.5	150	1.0	43.0	0.6661222	0.0
001	Nobody	45	2.0	120	1.0	44.0	1.0205914	0.0
001	Nobody	46	2.0	120	1.0	45.0	1.2216833	1.0
001	Nobody	47	1.0	120	1.0	46.0	1.4774449	1.0
001	Nobody	48	2.0	150	1.0	47.0	1.6549035	1.0
001	Nobody	49	1.0	90	1.0	48.0	1.2577635	1.0
001	Nobody	50	0.5	150	1.0	49.0	0.46746764	1.0
001	Nobody	51	1.0	150	1.0	50.0	1.319628	0.0
001	Nobody	52	0.5	120	1.0	51.0	0.87814736	0.0
001	Nobody	53	0.5	90	1.0	52.0	0.8013423	0.0
001	Nobody	54	2.0	90	1.0	53.0	1.6512268	1.0
001	Nobody	55	2.0	120	1.0	54.0	1.5881058	1.0
001	Nobody	56	0.5	120	1.0	55.0	0.46975434	1.0
001	Nobody	57	0.5	150	1.0	56.0	0.2561776	0.0
001	Nobody	58	0.5	90	1.0	57.0	1.1620663	1.0
001	Nobody	59	2.0	90	1.0	58.0	1.7044098	1.0
001	Nobody	60	1.0	120	1.0	59.0	0.7905969	0.0
001	Nobody	61	1.0	90	1.0	60.0	0.67768234	1.0
001	Nobody	62	1.0	150	1.0	61.0	0.5024811	1.0
001	Nobody	63	2.0	150	1.0	62.0	1.1783623	0.0
001	Nobody	64	1.0	90	1.0	63.0	0.5316435	0.0
001	Nobody	65	0.5	150	1.0	64.0	0.6019668	1.0
001	Nobody	66	1.0	120	1.0	65.0	1.025992	1.0
001	Nobody	67	1.0	150	1.0	66.0	0.64330816	1.0
001	Nobody	68	0.5	90	1.0	67.0	1.128237	0.0
001	Nobody	69	2.0	150	1.0	68.0	1.2058198	0.0
001	Nobody	70	2.0	90	1.0	69.0	1.2413206	1.0
001	Nobody	71	2.0	120	1.0	70.0	1.0333127	0.0
001	Nobody	72	0.5	120	1.0	71.0	0.5609676	0.0
001	Nobody	73	0.5	120	1.0	72.0	0.7163122	0.0
001	Nobody	74	2.0	90	1.0	73.0	1.2215405	1.0
001	Nobody	75	1.0	120	1.0	74.0	0.8842653	1.0
001	Nobody	76	1.0	150	1.0	75.0	1.0188602	1.0
001	Nobody	77	2.0	150	1.0	76.0	1.4425728	1.0
001	Nobody	78	1.0	90	1.0	77.0	0.96115315	0.0
001	Nobody	79	0.5	150	1.0	78.0	1.0165323	1.0
001	Nobody	80	0.5	90	1.0	79.0	0.610543	0.0
001	Nobody	81	2.0	120	1.0	80.0	1.0763909	1.0
001	Nobody	82	1.0	90	1.0	81.0	0.60256004	1.0
001	Nobody	83	0.5	120	1.0	82.0	0.3076013	1.0
001	Nobody	84	2.0	90	1.0	83.0	1.7480621	0.0
001	Nobody	85	2.0	120	1.0	84.0	1.6421431	0.0
001	Nobody	86	1.0	120	1.0	85.0	1.3684514	0.0
001	Nobody	87	0.5	90	1.0	86.0	0.50328827	0.0
001	Nobody	88	1.0	150	1.0	87.0	1.3598237	0.0
001	Nobody	89	0.5	150	1.0	88.0	0.948442	1.0
001	Nobody	90	2.0	150	1.0	89.0	1.9716711	0.0
﻿session	participant	TrialNumber	sf	ori	ran	order	RT	choice
001	Nobody	1	2.0	90	1.0	0.0	1.6694212	0.0
001	Nobody	2	2.0	120	1.0	1.0	1.4929137	0.0
001	Nobody	3	0.5	150	1.0	2.0	1.1795352	1.0
001	Nobody	4	2.0	150	1.0	3.0	1.0710516	1.0
001	Nobody	5	1.0	150	1.0	4.0	0.6073438	1.0
001	Nobody	6	1.0	120	1.0	5.0	0.66997486	1.0
001	Nobody	7	0.5	120	1.0	6.0	0.7631704	1.0
001	Nobody	8	0.5	90	1.0	7.0	0.9063978	0.0
001	Nobody	9	1.0	90	1.0	8.0	1.4054447	0.0
001	Nobody	10	0.5	90	1.0	9.0	0.58759433	0.0
001	Nobody	11	2.0	120	1.0	10.0	1.8158687	0.0
001	Nobody	12	1.0	90	1.0	11.0	1.1144888	1.0
001	Nobody	13	2.0	150	1.0	12.0	1.2252122	0.0
001	Nobody	14	2.0	90	1.0	13.0	1.9411591	1.0
001	Nobody	15	1.0	120	1.0	14.0	0.9541333	0.0
001	Nobody	16	0.5	120	1.0	15.0	1.2061102	1.0
001	Nobody	17	1.0	150	1.0	16.0	1.2460663	0.0
001	Nobody	18	0.5	150	1.0	17.0	0.76881015	1.0
001	Nobody	19	2.0	150	1.0	18.0	1.9305444	0.0
001	Nobody	20	1.0	120	1.0	19.0	0.9300741	1.0
001	Nobody	21	1.0	150	1.0	20.0	0.6786147	0.0
001	Nobody	22	0.5	90	1.0	21.0	0.7646968	1.0
001	Nobody	23	2.0	90	1.0	22.0	1.8362223	0.0
001	Nobody	24	0.5	120	1.0	23.0	1.0446278	1.0
001	Nobody	25	0.5	150	1.0	24.0	0.6950099	0.0
001	Nobody	26	2.0	120	1.0	25.0	1.3224887	0.0
001	Nobody	27	1.0	90	1.0	26.0	1.4699948	0.0
001	Nobody	28	0.5	150	1.0	27.0	0.9092616	1.0
001	Nobody	29	1.0	120	1.0	28.0	1.117111	0.0
001	Nobody	30	0.5	120	1.0	29.0	1.0751557	0.0
001	Nobody	31	2.0	120	1.0	30.0	1.0907363	0.0
001	Nobody	32	0.5	90	1.0	31.0	0.86017025	1.0
001	Nobody	33	2.0	90	1.0	32.0	1.0124758	0.0
001	Nobody	34	1.0	150	1.0	33.0	1.3542022	1.0
001	Nobody	35	2.0	150	1.0	34.0	1.002956	0.0
001	Nobody	36	1.0	90	1.0	35.0	1.4702812	1.0
001	Nobody	37	2.0	120	1.0	36.0	1.9872078	0.0
001	Nobody	38	0.5	120	1.0	37.0	1.0976001	0.0
001	Nobody	39	2.0	150	1.0	38.0	1.1979749	0.0
001	Nobody	40	0.5	150	1.0	39.0	0.44739392	1.0
001	Nobody	41	0.5	90	1.0	40.0	0.3924254	0.0
001	Nobody	42	1.0	150	1.0	41.0	0.6004227	1.0
001	Nobody	43	1.0	120	1.0	42.0	0.8163257	1.0
001	Nobody	44	1.0	90	1.0	43.0	1.3959402	1.0
001	Nobody	45	2.0	90	1.0	44.0	1.0653228	1.0
001	Nobody	46	2.0	120	1.0	45.0	1.5802857	0.0
001	Nobody	47	0.5	150	1.0	46.0	0.3931768	1.0
001	Nobody	48	1.0	120	1.0	47.0	0.88908863	0.0
001	Nobody	49	0.5	120	1.0	48.0	0.35319155	1.0
001	Nobody	50	2.0	150	1.0	49.0	1.8683511	0.0
001	Nobody	51	1.0	90	1.0	50.0	1.2844528	1.0
001	Nobody	52	0.5	90	1.0	51.0	0.6827696	0.0
001	Nobody	53	2.0	90	1.0	52.0	1.9429512	0.0
001	Nobody	54	1.0	150	1.0	53.0	1.1344454	0.0
001	Nobody	55	0.5	90	1.0	54.0	1.0144135	1.0
001	Nobody	56	1.0	90	1.0	55.0	1.447158	0.0
001	Nobody	57	2.0	120	1.0	56.0	1.7463063	1.0
001	Nobody	58	1.0	150	1.0	57.0	0.53151697	0.0
001	Nobody	59	0.5	150	1.0	58.0	0.35371625	0.0
001	Nobody	60	2.0	90	1.0	59.0	1.2964084	0.0
001	Nobody	61	1.0	120	1.0	60.0	0.8093904	1.0
001	Nobody	62	0.5	120	1.0	61.0	0.34729385	1.0
001	Nobody	63	2.0	150	1.0	62.0	1.6493659	1.0
001	Nobody	64	2.0	90	1.0	63.0	1.549543	1.0
001	Nobody	65	2.0	120	1.0	64.0	1.9698552	0.0
001	Nobody	66	0.5	120	1.0	65.0	0.8501002	0.0
001	Nobody	67	2.0	150	1.0	66.0	1.0490547	0.0
001	Nobody	68	1.0	120	1.0	67.0	0.946341	1.0
001	Nobody	69	1.0	90	1.0	68.0	0.6679475	0.0
001	Nobody	70	0.5	90	1.0	69.0	0.7731838	1.0
001	Nobody	71	0.5	150	1.0	70.0	0.87072015	1.0
001	Nobody	72	1.0	150	1.0	71.0	1.4404061	1.0
001	Nobody	73	2.0	90	1.0	72.0	1.0410144	1.0
001	Nobody	74	1.0	90	1.0	73.0	0.5194083	1.0
001	Nobody	75	2.0	150	1.0	74.0	1.189909	1.0
001	Nobody	76	0.5	120	1.0	75.0	0.35675237	1.0
001	Nobody	77	1.0	150	1.0	76.0	0.51836675	0.0
001	Nobody	78	0.5	150	1.0	77.0	1.1375074	1.0
001	Nobody	79	0.5	90	1.0	78.0	0.90880436	0.0
001	Nobody	80	1.0	120	1.0	79.0	0.9421311	1.0
001	Nobody	81	2.0	120	1.0	80.0	1.8301369	0.0
001	Nobody	82	1.0	90	1.0	81.0	1.1761138	1.0
001	Nobody	83	2.0	120	1.0	82.0	1.5075514	1.0
001	Nobody	84	0.5	120	1.0	83.0	1.0647185	0.0
001	Nobody	85	0.5	90	1.0	84.0	0.61284435	1.0
001	Nobody	86	2.0	90	1.0	85.0	1.6830195	1.0
001	Nobody	87	1.0	120	1.0	86.0	0.89863604	0.0
001	Nobody	88	1.0	150	1.0	87.0	1.0718305	1.0
001	Nobody	89	2.0	150	1.0	88.0	1.1501203	0.0
001	Nobody	90	0.5	150	1.0	89.0	0.9635223	0.0
﻿session	participant	TrialNumber	sf	ori	ran	order	RT	choice
001	Nobody	1	0.5	90	1.0	0.0	1.0445727	1.0
001	Nobody	2	1.0	150	1.0	1.0	1.1745205	0.0
001	Nobody	3	0.5	120	1.0	2.0	0.8076838	0.0
001	Nobody	4	1.0	90	1.0	3.0	0.64197147	1.0
001	Nobody	5	0.5	150	1.0	4.0	0.584409	1.0
001	Nobody	6	2.0	90	1.0	5.0	1.5720812	0.0
001	Nobody	7	2.0	120	1.0	6.0	1.7562575	1.0
001	Nobody	8	2.0	150	1.0	7.0	1.1219699	1.0
001	Nobody	9	1.0	120	1.0	8.0	1.0182523	0.0
001	Nobody	10	2.0	90	1.0	9.0	1.2113055	0.0
001	Nobody	11	1.0	150	1.0	10.0	1.2167063	0.0
001	Nobody	12	2.0	150	1.0	11.0	1.3197503	1.0
001	Nobody	13	2.0	120	1.0	12.0	1.0381117	0.0
001	Nobody	14	0.5	150	1.0	13.0	0.653944	0.0
001	Nobody	15	1.0	120	1.0	14.0	1.1769387	1.0
001	Nobody	16	1.0	90	1.0	15.0	0.69932336	0.0
001	Nobody	17	0.5	90	1.0	16.0	0.33292702	1.0
001	Nobody	18	0.5	120	1.0	17.0	1.1085432	1.0
001	Nobody	19	0.5	150	1.0	18.0	0.6994365	1.0
001	Nobody	20	2.0	120	1.0	19.0	1.2689912	0.0
001	Nobody	21	0.5	90	1.0	20.0	1.06309	0.0
001	Nobody	22	2.0	90	1.0	21.0	1.8548311	0.0
001	Nobody	23	1.0	90	1.0	22.0	1.0745578	1.0
001	Nobody	24	1.0	150	1.0	23.0	0.8065795	0.0
001	Nobody	25	0.5	120	1.0	24.0	0.6418281	0.0
001	Nobody	26	1.0	120	1.0	25.0	1.3082181	0.0
001	Nobody	27	2.0	150	1.0	26.0	1.7937194	1.0
001	Nobody	28	1.0	150	1.0	27.0	0.6489931	0.0
001	Nobody	29	1.0	120	1.0	28.0	0.55492795	1.0
001	Nobody	30	0.5	120	1.0	29.0	0.54680014	1.0
001	Nobody	31	1.0	90	1.0	30.0	1.3104281	0.0
001	Nobody	32	0.5	150	1.0	31.0	0.34560055	0.0
001	Nobody	33	0.5	90	1.0	32.0	0.92927665	1.0
001	Nobody	34	2.0	120	1.0	33.0	1.1577545	0.0
001	Nobody	35	2.0	90	1.0	34.0	1.4412093	1.0
001	Nobody	36	2.0	150	1.0	35.0	1.5152118	0.0
001	Nobody	37	2.0	120	1.0	36.0	1.560023	1.0
001	Nobody	38	0.5	120	1.0	37.0	1.0266253	1.0
001	Nobody	39	2.0	90	1.0	38.0	1.5632507	0.0
001	Nobody	40	2.0	150	1.0	39.0	1.1052744	1.0
001	Nobody	41	0.5	150	1.0	40.0	0.69387656	1.0
001	Nobody	42	0.5	90	1.0	41.0	0.62709963	1.0
001	Nobody	43	1.0	120	1.0	42.0	0.73998195	0.0
001	Nobody	44	1.0	90	1.0	43.0	1.3956219	1.0
001	Nobody	45	1.0	150	1.0	44.0	1.4094508	0.0
001	Nobody	46	2.0	90	1.0	45.0	1.0242244	1.0
001	Nobody	47	1.0	150	1.0	46.0	1.0255977	1.0
001	Nobody	48	0.5	150	1.0	47.0	0.3471263	0.0
001	Nobody	49	0.5	120	1.0	48.0	0.93580335	0.0
001	Nobody	50	0.5	90	1.0	49.0	1.2265607	0.0
001	Nobody	51	1.0	120	1.0	50.0	1.4129568	0.0
001	Nobody	52	1.0	90	1.0	51.0	1.3553684	1.0
001	Nobody	53	2.0	120	1.0	52.0	1.1863822	1.0
001	Nobody	54	2.0	150	1.0	53.0	1.281959	0.0
001	Nobody	55	2.0	90	1.0	54.0	1.0924424	1.0
001	Nobody	56	0.5	90	1.0	55.0	0.85727084	1.0
001	Nobody	57	1.0	120	1.0	56.0	1.4487605	1.0
001	Nobody	58	0.5	150	1.0	57.0	0.47507495	1.0
001	Nobody	59	1.0	150	1.0	58.0	1.4280189	1.0
001	Nobody	60	0.5	120	1.0	59.0	0.719376	0.0
001	Nobody	61	2.0	150	1.0	60.0	1.6614223	0.0
001	Nobody	62	2.0	120	1.0	61.0	1.5229677	1.0
001	Nobody	63	1.0	90	1.0	62.0	0.7984957	0.0
001	Nobody	64	1.0	150	1.0	63.0	1.4242872	0.0
001	Nobody	65	2.0	90	1.0	64.0	1.0306516	0.0
001	Nobody	66	2.0	150	1.0	65.0	1.0222228	0.0
001	Nobody	67	1.0	90	1.0	66.0	0.8883028	0.0
001	Nobody	68	1.0	120	1.0	67.0	1.4558127	0.0
001	Nobody	69	0.5	90	1.0	68.0	0.5656426	1.0
001	Nobody	70	2.0	120	1.0	69.0	1.3732162	0.0
001	Nobody	71	0.5	150	1.0	70.0	0.6121472	1.0
001	Nobody	72	0.5	120	1.0	71.0	1.1959233	1.0
001	Nobody	73	2.0	90	1.0	72.0	1.9852741	1.0
001	Nobody	74	2.0	120	1.0	73.0	1.516253	1.0
001	Nobody	75	1.0	120	1.0	74.0	0.57090974	0.0
001	Nobody	76	0.5	150	1.0	75.0	0.5753712	0.0
001	Nobody	77	2.0	150	1.0	76.0	1.5284816	1.0
001	Nobody	78	1.0	150	1.0	77.0	0.5070219	0.0
001	Nobody	79	0.5	90	1.0	78.0	0.5905739	1.0
001	Nobody	80	0.5	120	1.0	79.0	0.9184819	1.0
001	Nobody	81	1.0	90	1.0	80.0	0.8654032	1.0
001	Nobody	82	2.0	90	1.0	81.0	1.1481328	0.0
001	Nobody	83	2.0	150	1.0	82.0	1.7409704	1.0
001	Nobody	84	1.0	120	1.0	83.0	1.2560855	0.0
001	Nobody	85	2.0	120	1.0	84.0	1.9321511	1.0
001	Nobody	86	1.0	150	1.0	85.0	0.93555176	1.0
001	Nobody	87	1.0	90	1.0	86.0	0.8086826	0.0
001	Nobody	88	0.5	90	1.0	87.0	1.0068095	1.0
001	Nobody	89	0.5	150	1.0	88.0	0.49260122	1.0
001	Nobody	90	0.5	120	1.0	89.0	1.1898267	1.0
﻿session	participant	TrialNumber	circleRadius	direction	ran	order	RT	choice
001	Nobody	1	8	1	1.0	0.0	0.5176981	0.0
001	Nobody	2	12	1	1.0	1.0	0.23583215	0.0
001	Nobody	3	15	1	1.0	2.0	0.9014956	1.0
001	Nobody	4	19	-1	1.0	3.0	0.32980138	1.0
001	Nobody	5	18	-1	1.0	4.0	0.87959474	1.0
001	Nobody	6	12	-1	1.0	5.0	0.07104737	0.0
001	Nobody	7	4	-1	1.0	6.0	0.2871119	1.0
001	Nobody	8	4	1	1.0	7.0	0.27699503	1.0
001	Nobody	9	19	1	1.0	8.0	0.0084820455	0.0
001	Nobody	10	16	-1	1.0	9.0	0.2321723	0.0
001	Nobody	11	13	-1	1.0	10.0	0.9810442	0.0
001	Nobody	12	11	-1	1.0	11.0	0.28212586	0.0
001	Nobody	13	14	1	1.0	12.0	0.14581525	0.0
001	Nobody	14	5	-1	1.0	13.0	0.4309222	0.0
001	Nobody	15	17	-1	1.0	14.0	0.48893255	1.0
001	Nobody	16	3	-1	1.0	15.0	0.7964873	1.0
001	Nobody	17	10	-1	1.0	16.0	0.74355376	0.0
001	Nobody	18	6	-1	1.0	17.0	0.0044187503	1.0
001	Nobody	19	15	-1	1.0	18.0	0.07641369	1.0
001	Nobody	20	14	-1	1.0	19.0	0.3215416	0.0
001	Nobody	21	7	-1	1.0	20.0	0.7679682	1.0
001	Nobody	22	3	1	1.0	21.0	0.6362309	1.0
001	Nobody	23	18	1	1.0	22.0	0.72906053	1.0
001	Nobody	24	9	1	1.0	23.0	0.8640237	1.0
001	Nobody	25	13	1	1.0	24.0	0.4270691	1.0
001	Nobody	26	8	-1	1.0	25.0	0.6283552	0.0
001	Nobody	27	16	1	1.0	26.0	0.6792075	1.0
001	Nobody	28	11	1	1.0	27.0	0.9852775	1.0
001	Nobody	29	9	-1	1.0	28.0	0.09279203	1.0
001	Nobody	30	6	1	1.0	29.0	0.9878801	0.0
001	Nobody	31	17	1	1.0	30.0	0.3195308	1.0
001	Nobody	32	5	1	1.0	31.0	0.88905394	0.0
001	Nobody	33	7	1	1.0	32.0	0.10206895	0.0
001	Nobody	34	10	1	1.0	33.0	0.68960047	0.0
001	Nobody	35	17	-1	1.0	34.0	0.7526526	1.0
001	Nobody	36	9	-1	1.0	35.0	0.5531624	0.0
001	Nobody	37	17	1	1.0	36.0	0.90178275	1.0
001	Nobody	38	12	1	1.0	37.0	0.010338988	0.0
001	Nobody	39	16	1	1.0	38.0	0.21291529	0.0
001	Nobody	40	13	1	1.0	39.0	0.3867827	0.0
001	Nobody	41	10	-1	1.0	40.0	0.8991723	1.0
001	Nobody	42	15	1	1.0	41.0	0.7616864	1.0
001	Nobody	43	10	1	1.0	42.0	0.34195736	1.0
001	Nobody	44	8	-1	1.0	43.0	0.2839306	0.0
001	Nobody	45	3	-1	1.0	44.0	0.185614	0.0
001	Nobody	46	19	-1	1.0	45.0	0.8357827	0.0
001	Nobody	47	18	1	1.0	46.0	0.93287754	0.0
001	Nobody	48	7	1	1.0	47.0	0.51963484	0.0
001	Nobody	49	11	-1	1.0	48.0	0.7673097	1.0
001	Nobody	50	16	-1	1.0	49.0	0.07209893	1.0
001	Nobody	51	19	1	1.0	50.0	0.88299334	0.0
001	Nobody	52	11	1	1.0	51.0	0.49438184	0.0
001	Nobody	53	4	-1	1.0	52.0	0.47883973	1.0
001	Nobody	54	9	1	1.0	53.0	0.20245592	0.0
001	Nobody	55	18	-1	1.0	54.0	0.89768326	1.0
001	Nobody	56	14	1	1.0	55.0	0.7048987	1.0
001	Nobody	57	7	-1	1.0	56.0	0.08001384	0.0
001	Nobody	58	5	1	1.0	57.0	0.44278845	0.0
001	Nobody	59	14	-1	1.0	58.0	0.006021805	1.0
001	Nobody	60	5	-1	1.0	59.0	0.6995812	1.0
001	Nobody	61	3	1	1.0	60.0	0.2450297	1.0
001	Nobody	62	4	1	1.0	61.0	0.048683792	0.0
001	Nobody	63	6	-1	1.0	62.0	0.28023878	1.0
001	Nobody	64	13	-1	1.0	63.0	0.08687228	1.0
001	Nobody	65	8	1	1.0	64.0	0.04341275	1.0
001	Nobody	66	15	-1	1.0	65.0	0.8926334	0.0
001	Nobody	67	12	-1	1.0	66.0	0.8953133	0.0
001	Nobody	68	6	1	1.0	67.0	0.9040406	1.0
001	Nobody	69	6	-1	1.0	68.0	0.76878387	0.0
001	Nobody	70	12	-1	1.0	69.0	0.52581817	1.0
001	Nobody	71	9	-1	1.0	70.0	0.749878	1.0
001	Nobody	72	5	1	1.0	71.0	0.49229524	0.0
001	Nobody	73	17	1	1.0	72.0	0.52006423	1.0
001	Nobody	74	18	-1	1.0	73.0	0.57302845	0.0
001	Nobody	75	19	1	1.0	74.0	0.26010484	0.0
001	Nobody	76	7	1	1.0	75.0	0.4388761	0.0
001	Nobody	77	4	1	1.0	76.0	0.43370122	1.0
001	Nobody	78	7	-1	1.0	77.0	0.1927797	1.0
001	Nobody	79	16	1	1.0	78.0	0.20843774	0.0
001	Nobody	80	14	-1	1.0	79.0	0.39870346	1.0
001	Nobody	81	17	-1	1.0	80.0	0.42105365	1.0
001	Nobody	82	3	-1	1.0	81.0	0.59792006	0.0
001	Nobody	83	6	1	1.0	82.0	0.5375916	0.0
001	Nobody	84	9	1	1.0	83.0	0.46889275	1.0
001	Nobody	85	8	-1	1.0	84.0	0.7656448	1.0
001	Nobody	86	13	1	1.0	85.0	0.30724987	0.0
001	Nobody	87	8	1	1.0	86.0	0.5889055	1.0
001	Nobody	88	14	1	1.0	87.0	0.022353863	0.0
001	Nobody	89	18	1	1.0	88.0	0.2600872	0.0
001	Nobody	90	11	1	1.0	89.0	0.67486686	1.0
001	Nobody	91	5	-1	1.0	90.0	0.93839383	1.0
001	Nobody	92	11	-1	1.0	91.0	0.40930313	1.0
001	Nobody	93	10	-1	1.0	92.0	0.6591336	0.0
001	Nobody	94	16	-1	1.0	93.0	0.27287132	1.0
001	Nobody	95	13	-1	1.0	94.0	0.30333027	0.0
001	Nobody	96	12	1	1.0	95.0	0.79478836	0.0
001	Nobody	97	3	1	1.0	96.0	0.22590493	0.0
001	Nobody	98	15	1	1.0	97.0	0.38609457	1.0
001	Nobody	99	4	-1	1.0	98.0	0.5261903	1.0
001	Nobody	100	10	1	1.0	99.0	0.71859306	1.0
001	Nobody	101	19	-1	1.0	100.0	0.34929436	1.0
001	Nobody	102	15	-1	1.0	101.0	0.108809605	0.0
001	Nobody	103	14	1	1.0	102.0	0.96755517	1.0
001	Nobody	104	15	1	1.0	103.0	0.4450655	0.0
001	Nobody	105	11	-1	1.0	104.0	0.49642918	1.0
001	Nobody	106	13	-1	1.0	105.0	0.09164917	1.0
001	Nobody	107	8	-1	1.0	106.0	0.79973525	0.0
001	Nobody	108	12	1	1.0	107.0	0.5450888	1.0
001	Nobody	109	3	-1	1.0	108.0	0.11312102	0.0
001	Nobody	110	7	1	1.0	109.0	0.41523755	1.0
001	Nobody	111	16	-1	1.0	110.0	0.7450485	1.0
001	Nobody	112	6	-1	1.0	111.0	0.55933285	0.0
001	Nobody	113	16	1	1.0	112.0	0.4708609	1.0
001	Nobody	114	17	1	1.0	113.0	0.06100798	0.0
001	Nobody	115	14	-1	1.0	114.0	0.30462137	0.0
001	Nobody	116	5	1	1.0	115.0	0.98041123	0.0
001	Nobody	117	4	1	1.0	116.0	0.1320247	0.0
001	Nobody	118	4	-1	1.0	117.0	0.67044634	1.0
001	Nobody	119	15	-1	1.0	118.0	0.7039064	1.0
001	Nobody	120	17	-1	1.0	119.0	0.40754256	1.0
001	Nobody	121	6	1	1.0	120.0	0.8603014	0.0
001	Nobody	122	5	-1	1.0	121.0	0.17622922	0.0
001	Nobody	123	19	-1	1.0	122.0	0.48350695	0.0
001	Nobody	124	7	-1	1.0	123.0	0.9284611	0.0
001	Nobody	125	8	1	1.0	124.0	0.45677117	1.0
001	Nobody	126	9	-1	1.0	125.0	0.1868981	0.0
001	Nobody	127	3	1	1.0	126.0	0.9051295	1.0
001	Nobody	128	10	-1	1.0	127.0	0.0066225664	0.0
001	Nobody	129	11	1	1.0	128.0	0.5397358	1.0
001	Nobody	130	19	1	1.0	129.0	0.42216682	1.0
001	Nobody	131	9	1	1.0	130.0	0.020435885	0.0
001	Nobody	132	12	-1	1.0	131.0	0.71222186	1.0
001	Nobody	133	10	1	1.0	132.0	0.8147132	1.0
001	Nobody	134	13	1	1.0	133.0	0.9717991	0.0
001	Nobody	135	18	-1	1.0	134.0	0.77449805	1.0
001	Nobody	136	18	1	1.0	135.0	0.47008443	0.0
001	Nobody	137	6	-1	1.0	136.0	0.6503663	0.0
001	Nobody	138	10	-1	1.0	137.0	0.80251205	1.0
001	Nobody	139	7	-1	1.0	138.0	0.89678323	0.0
001	Nobody	140	5	1	1.0	139.0	0.6203718	1.0
001	Nobody	141	19	1	1.0	140.0	0.018818712	0.0
001	Nobody	142	18	-1	1.0	141.0	0.6088036	0.0
001	Nobody	143	7	1	1.0	142.0	0.35899803	1.0
001	Nobody	144	11	1	1.0	143.0	0.3267313	1.0
001	Nobody	145	10	1	1.0	144.0	0.8436677	0.0
001	Nobody	146	18	1	1.0	145.0	0.18845332	1.0
001	Nobody	147	9	-1	1.0	146.0	0.32093996	1.0
001	Nobody	148	14	1	1.0	147.0	0.50242054	1.0
001	Nobody	149	13	1	1.0	148.0	0.83478934	1.0
001	Nobody	150	9	1	1.0	149.0	0.38210136	1.0
001	Nobody	151	3	-1	1.0	150.0	0.114051715	1.0
001	Nobody	152	17	1	1.0	151.0	0.78805333	0.0
001	Nobody	153	15	-1	1.0	152.0	0.6033347	0.0
001	Nobody	154	13	-1	1.0	153.0	0.101773605	0.0
001	Nobody	155	4	-1	1.0	154.0	0.03317646	0.0
001	Nobody	156	17	-1	1.0	155.0	0.2604269	1.0
001	Nobody	157	12	1	1.0	156.0	0.13598566	0.0
001	Nobody	158	8	1	1.0	157.0	0.08187307	0.0
001	Nobody	159	11	-1	1.0	158.0	0.11678572	1.0
001	Nobody	160	6	1	1.0	159.0	0.29619375	0.0
001	Nobody	161	8	-1	1.0	160.0	0.08987903	1.0
001	Nobody	162	4	1	1.0	161.0	0.11655366	1.0
001	Nobody	163	5	-1	1.0	162.0	0.70000285	1.0
001	Nobody	164	19	-1	1.0	163.0	0.6014179	1.0
001	Nobody	165	15	1	1.0	164.0	0.5381631	0.0
001	Nobody	166	14	-1	1.0	165.0	0.06733723	1.0
001	Nobody	167	3	1	1.0	166.0	0.24708425	1.0
001	Nobody	168	16	-1	1.0	167.0	0.4069876	1.0
001	Nobody	169	16	1	1.0	168.0	0.78266674	1.0
001	Nobody	170	12	-1	1.0	169.0	0.31223807	1.0
001	Nobody	171	15	-1	1.0	170.0	0.8015893	1.0
001	Nobody	172	3	1	1.0	171.0	0.7941322	1.0
001	Nobody	173	17	-1	1.0	172.0	0.706432	0.0
001	Nobody	174	6	1	1.0	173.0	0.5927301	0.0
001	Nobody	175	13	-1	1.0	174.0	0.67354304	0.0
001	Nobody	176	14	1	1.0	175.0	0.7577927	0.0
001	Nobody	177	19	-1	1.0	176.0	0.335347	1.0
001	Nobody	178	3	-1	1.0	177.0	0.46426648	1.0
001	Nobody	179	5	1	1.0	178.0	0.906394	0.0
001	Nobody	180	8	-1	1.0	179.0	0.65878624	0.0
001	Nobody	181	10	-1	1.0	180.0	0.17773628	0.0
001	Nobody	182	11	-1	1.0	181.0	0.9944321	1.0
001	Nobody	183	16	-1	1.0	182.0	0.76748157	0.0
001	Nobody	184	14	-1	1.0	183.0	0.19545105	1.0
001	Nobody	185	12	1	1.0	184.0	0.6251857	1.0
001	Nobody	186	15	1	1.0	185.0	0.5186856	1.0
001	Nobody	187	4	1	1.0	186.0	0.9607902	0.0
001	Nobody	188	18	-1	1.0	187.0	0.41983637	0.0
001	Nobody	189	11	1	1.0	188.0	0.86828744	0.0
001	Nobody	190	17	1	1.0	189.0	0.6997409	1.0
001	Nobody	191	4	-1	1.0	190.0	0.6613531	1.0
001	Nobody	192	5	-1	1.0	191.0	0.9571413	1.0
001	Nobody	193	19	1	1.0	192.0	0.3264184	1.0
001	Nobody	194	13	1	1.0	193.0	0.77240753	1.0
001	Nobody	195	18	1	1.0	194.0	0.20212005	0.0
001	Nobody	196	8	1	1.0	195.0	0.6178341	0.0
001	Nobody	197	7	-1	1.0	196.0	0.0028150333	1.0
001	Nobody	198	7	1	1.0	197.0	0.32573298	0.0
001	Nobody	199	16	1	1.0	198.0	0.90377134	1.0
001	Nobody	200	6	-1	1.0	199.0	0.03770152	0.0
001	Nobody	201	10	1	1.0	200.0	0.27294368	0.0
001	Nobody	202	9	-1	1.0	201.0	0.4128111	0.0
001	Nobody	203	12	-1	1.0	202.0	0.5737001	0.0
001	Nobody	204	9	1	1.0	203.0	0.8407225	1.0
001	Nobody	205	5	-1	1.0	204.0	0.9409898	1.0
001	Nobody	206	17	-1	1.0	205.0	0.5718577	1.0
001	Nobody	207	14	-1	1.0	206.0	0.02242545	0.0
001	Nobody	208	14	1	1.0	207.0	0.15769768	0.0
001	Nobody	209	13	1	1.0	208.0	0.98210144	1.0
001	Nobody	210	17	1	1.0	209.0	0.6110838	0.0
001	Nobody	211	11	1	1.0	210.0	0.8598269	1.0
001	Nobody	212	7	-1	1.0	211.0	0.1060628	1.0
001	Nobody	213	16	-1	1.0	212.0	0.5311477	1.0
001	Nobody	214	8	-1	1.0	213.0	0.7574989	1.0
001	Nobody	215	5	1	1.0	214.0	0.48830864	0.0
001	Nobody	216	15	1	1.0	215.0	0.14423892	1.0
001	Nobody	217	6	-1	1.0	216.0	0.9202248	1.0
001	Nobody	218	11	-1	1.0	217.0	0.6865811	1.0
001	Nobody	219	10	-1	1.0	218.0	0.26829988	1.0
001	Nobody	220	3	-1	1.0	219.0	0.5326898	0.0
001	Nobody	221	19	-1	1.0	220.0	0.6003309	0.0
001	Nobody	222	19	1	1.0	221.0	0.8028117	1.0
001	Nobody	223	9	1	1.0	222.0	0.5224647	0.0
001	Nobody	224	3	1	1.0	223.0	0.040827267	1.0
001	Nobody	225	4	-1	1.0	224.0	0.2566334	0.0
001	Nobody	226	18	-1	1.0	225.0	0.0395343	0.0
001	Nobody	227	18	1	1.0	226.0	0.7395821	1.0
001	Nobody	228	8	1	1.0	227.0	0.42112556	1.0
001	Nobody	229	12	1	1.0	228.0	0.70462996	1.0
001	Nobody	230	12	-1	1.0	229.0	0.70362073	1.0
001	Nobody	231	13	-1	1.0	230.0	0.97549146	1.0
001	Nobody	232	6	1	1.0	231.0	0.5078711	0.0
001	Nobody	233	4	1	1.0	232.0	0.1704307	0.0
001	Nobody	234	10	1	1.0	233.0	0.23764436	0.0
001	Nobody	235	9	-1	1.0	234.0	0.9797873	1.0
001	Nobody	236	16	1	1.0	235.0	0.06958431	1.0
001	Nobody	237	15	-1	1.0	236.0	0.89811546	0.0
001	Nobody	238	7	1	1.0	237.0	0.106411465	1.0
001	Nobody	239	5	-1	1.0	238.0	0.19519104	1.0
001	Nobody	240	19	-1	1.0	239.0	0.09570874	0.0
001	Nobody	241	3	1	1.0	240.0	0.5112004	1.0
001	Nobody	242	4	1	1.0	241.0	0.61982656	1.0
001	Nobody	243	13	-1	1.0	242.0	0.51948255	1.0
001	Nobody	244	7	-1	1.0	243.0	0.4690251	1.0
001	Nobody	245	8	-1	1.0	244.0	0.8468708	1.0
001	Nobody	246	4	-1	1.0	245.0	0.76302433	0.0
001	Nobody	247	14	1	1.0	246.0	0.056264326	1.0
001	Nobody	248	10	1	1.0	247.0	0.4686684	0.0
001	Nobody	249	13	1	1.0	248.0	0.8867885	1.0
001	Nobody	250	18	1	1.0	249.0	0.637141	1.0
001	Nobody	251	5	1	1.0	250.0	0.8592473	1.0
001	Nobody	252	8	1	1.0	251.0	0.51404065	1.0
001	Nobody	253	6	1	1.0	252.0	0.20497257	0.0
001	Nobody	254	14	-1	1.0	253.0	0.9701243	0.0
001	Nobody	255	9	-1	1.0	254.0	0.8327342	1.0
001	Nobody	256	16	-1	1.0	255.0	0.7676723	0.0
001	Nobody	257	16	1	1.0	256.0	0.13472623	1.0
001	Nobody	258	17	1	1.0	257.0	0.46957928	0.0
001	Nobody	259	6	-1	1.0	258.0	0.96285176	1.0
001	Nobody	260	18	-1	1.0	259.0	0.9578198	1.0
001	Nobody	261	17	-1	1.0	260.0	0.90404636	1.0
001	Nobody	262	7	1	1.0	261.0	0.3075035	1.0
001	Nobody	263	3	-1	1.0	262.0	0.5964518	1.0
001	Nobody	264	15	-1	1.0	263.0	0.642582	1.0
001	Nobody	265	15	1	1.0	264.0	0.98840714	0.0
001	Nobody	266	12	-1	1.0	265.0	0.056798413	0.0
001	Nobody	267	11	1	1.0	266.0	0.5256711	1.0
001	Nobody	268	19	1	1.0	267.0	0.0074762646	0.0
001	Nobody	269	9	1	1.0	268.0	0.7047758	0.0
001	Nobody	270	10	-1	1.0	269.0	0.44889903	1.0
001	Nobody	271	11	-1	1.0	270.0	0.46990535	1.0
001	Nobody	272	12	1	1.0	271.0	0.6962288	1.0
001	Nobody	273	7	1	1.0	272.0	0.8556034	0.0
001	Nobody	274	6	1	1.0	273.0	0.9794266	0.0
001	Nobody	275	11	-1	1.0	274.0	0.04049577	1.0
001	Nobody	276	10	1	1.0	275.0	0.3764337	0.0
001	Nobody	277	7	-1	1.0	276.0	0.38358063	1.0
001	Nobody	278	19	1	1.0	277.0	0.09115226	0.0
001	Nobody	279	5	1	1.0	278.0	0.6524509	0.0
001	Nobody	280	10	-1	1.0	279.0	0.7446861	1.0
001	Nobody	281	11	1	1.0	280.0	0.9123144	0.0
001	Nobody	282	17	-1	1.0	281.0	0.14976147	1.0
001	Nobody	283	18	1	1.0	282.0	0.6871087	0.0
001	Nobody	284	9	-1	1.0	283.0	0.7913147	0.0
001	Nobody	285	4	1	1.0	284.0	0.83493274	0.0
001	Nobody	286	14	1	1.0	285.0	0.749435	0.0
001	Nobody	287	14	-1	1.0	286.0	0.042461917	0.0
001	Nobody	288	15	1	1.0	287.0	0.13640566	0.0
001	Nobody	289	17	1	1.0	288.0	0.017853368	1.0
001	Nobody	290	4	-1	1.0	289.0	0.17125693	1.0
001	Nobody	291	13	1	1.0	290.0	0.3604287	1.0
001	Nobody	292	18	-1	1.0	291.0	0.19750766	0.0
001	Nobody	293	12	1	1.0	292.0	0.50520015	0.0
001	Nobody	294	16	1	1.0	293.0	0.07411253	1.0
001	Nobody	295	12	-1	1.0	294.0	0.23091099	0.0
001	Nobody	296	19	-1	1.0	295.0	0.9460812	1.0
001	Nobody	297	8	1	1.0	296.0	0.6252616	0.0
001	Nobody	298	3	1	1.0	297.0	0.12594537	1.0
001	Nobody	299	5	-1	1.0	298.0	0.9193659	0.0
001	Nobody	300	16	-1	1.0	299.0	0.26193994	0.0
001	Nobody	301	3	-1	1.0	300.0	0.054340143	1.0
001	Nobody	302	13	-1	1.0	301.0	0.9952664	1.0
001	Nobody	303	15	-1	1.0	302.0	0.52407485	1.0
001	Nobody	304	6	-1	1.0	303.0	0.6107149	1.0
001	Nobody	305	9	1	1.0	304.0	0.043208156	1.0
001	Nobody	306	8	-1	1.0	305.0	0.09632276	1.0
001	Nobody	307	11	1	1.0	306.0	0.83765906	1.0
001	Nobody	308	9	-1	1.0	307.0	0.18367429	1.0
001	Nobody	309	11	-1	1.0	308.0	0.72064567	1.0
001	Nobody	310	13	1	1.0	309.0	0.6796432	1.0
001	Nobody	311	15	-1	1.0	310.0	0.9334365	0.0
001	Nobody	312	19	-1	1.0	311.0	0.41715595	1.0
001	Nobody	313	16	1	1.0	312.0	0.92443013	0.0
001	Nobody	314	12	1	1.0	313.0	0.824786	1.0
001	Nobody	315	15	1	1.0	314.0	0.7171082	1.0
001	Nobody	316	4	1	1.0	315.0	0.5754267	1.0
001	Nobody	317	16	-1	1.0	316.0	0.83763367	0.0
001	Nobody	318	18	-1	1.0	317.0	0.32292113	1.0
001	Nobody	319	9	1	1.0	318.0	0.5294438	0.0
001	Nobody	320	5	-1	1.0	319.0	0.04129774	0.0
001	Nobody	321	3	1	1.0	320.0	0.759513	1.0
001	Nobody	322	17	-1	1.0	321.0	0.6286079	1.0
001	Nobody	323	4	-1	1.0	322.0	0.45832235	1.0
001	Nobody	324	10	1	1.0	323.0	0.78832936	0.0
001	Nobody	325	17	1	1.0	324.0	0.9458688	0.0
001	Nobody	326	14	1	1.0	325.0	0.48750153	0.0
001	Nobody	327	7	-1	1.0	326.0	0.9074898	0.0
001	Nobody	328	8	1	1.0	327.0	0.63554096	1.0
001	Nobody	329	19	1	1.0	328.0	0.94260675	0.0
001	Nobody	330	18	1	1.0	329.0	0.08587658	0.0
001	Nobody	331	13	-1	1.0	330.0	0.4141314	1.0
001	Nobody	332	12	-1	1.0	331.0	0.37115327	1.0
001	Nobody	333	6	1	1.0	332.0	0.3922265	1.0
001	Nobody	334	3	-1	1.0	333.0	0.094450116	1.0
001	Nobody	335	10	-1	1.0	334.0	0.57170737	1.0
001	Nobody	336	14	-1	1.0	335.0	0.038433924	1.0
001	Nobody	337	7	1	1.0	336.0	0.9851346	0.0
001	Nobody	338	5	1	1.0	337.0	0.05601235	0.0
001	Nobody	339	8	-1	1.0	338.0	0.040918298	1.0
001	Nobody	340	6	-1	1.0	339.0	0.6606309	1.0
﻿session	participant	TrialNumber	circleRadius	direction	ran	order	RT	choice
001	Nobody	1	12	-1	1.0	0.0	0.34535947	1.0
001	Nobody	2	4	-1	1.0	1.0	0.15517685	1.0
001	Nobody	3	8	-1	1.0	2.0	0.9694277	1.0
001	Nobody	4	6	-1	1.0	3.0	0.38767526	0.0
001	Nobody	5	9	-1	1.0	4.0	0.14257039	1.0
001	Nobody	6	10	1	1.0	5.0	0.84428954	1.0
001	Nobody	7	5	-1	1.0	6.0	0.64385986	1.0
001	Nobody	8	11	1	1.0	7.0	0.4857374	1.0
001	Nobody	9	3	-1	1.0	8.0	0.29844046	1.0
001	Nobody	10	18	-1	1.0	9.0	0.40687656	0.0
001	Nobody	11	19	-1	1.0	10.0	0.9773971	1.0
001	Nobody	12	18	1	1.0	11.0	0.95243734	0.0
001	Nobody	13	13	1	1.0	12.0	0.5111766	0.0
001	Nobody	14	19	1	1.0	13.0	0.7567446	1.0
001	Nobody	15	16	-1	1.0	14.0	0.29724044	1.0
001	Nobody	16	7	1	1.0	15.0	0.3950192	1.0
001	Nobody	17	5	1	1.0	16.0	0.8826272	0.0
001	Nobody	18	4	1	1.0	17.0	0.12088329	0.0
001	Nobody	19	7	-1	1.0	18.0	0.770848	1.0
001	Nobody	20	10	-1	1.0	19.0	0.72832406	1.0
001	Nobody	21	14	-1	1.0	20.0	0.9805083	0.0
001	Nobody	22	14	1	1.0	21.0	0.15757374	1.0
001	Nobody	23	9	1	1.0	22.0	0.33617195	1.0
001	Nobody	24	15	-1	1.0	23.0	0.96247274	0.0
001	Nobody	25	16	1	1.0	24.0	0.93658024	0.0
001	Nobody	26	12	1	1.0	25.0	0.012091009	0.0
001	Nobody	27	17	1	1.0	26.0	0.95739603	1.0
001	Nobody	28	13	-1	1.0	27.0	0.26796842	1.0
001	Nobody	29	11	-1	1.0	28.0	0.38600174	0.0
001	Nobody	30	17	-1	1.0	29.0	0.9484726	0.0
001	Nobody	31	15	1	1.0	30.0	0.76799226	0.0
001	Nobody	32	8	1	1.0	31.0	0.6294647	1.0
001	Nobody	33	6	1	1.0	32.0	0.29116872	1.0
001	Nobody	34	3	1	1.0	33.0	0.0577039	1.0
001	Nobody	35	16	1	1.0	34.0	0.27454695	1.0
001	Nobody	36	5	1	1.0	35.0	0.26966202	1.0
001	Nobody	37	15	-1	1.0	36.0	0.83090574	0.0
001	Nobody	38	9	1	1.0	37.0	0.15381902	0.0
001	Nobody	39	11	-1	1.0	38.0	0.40572882	1.0
001	Nobody	40	16	-1	1.0	39.0	0.024536233	1.0
001	Nobody	41	17	-1	1.0	40.0	0.2502995	1.0
001	Nobody	42	3	-1	1.0	41.0	0.15983783	0.0
001	Nobody	43	8	1	1.0	42.0	0.27040893	0.0
001	Nobody	44	7	-1	1.0	43.0	0.31941333	0.0
001	Nobody	45	17	1	1.0	44.0	0.8653569	0.0
001	Nobody	46	19	-1	1.0	45.0	0.9518008	0.0
001	Nobody	47	13	-1	1.0	46.0	0.44870386	0.0
001	Nobody	48	9	-1	1.0	47.0	0.033083554	1.0
001	Nobody	49	18	-1	1.0	48.0	0.537649	0.0
001	Nobody	50	7	1	1.0	49.0	0.13438195	0.0
001	Nobody	51	14	-1	1.0	50.0	0.08142228	1.0
001	Nobody	52	12	1	1.0	51.0	0.94075966	1.0
001	Nobody	53	12	-1	1.0	52.0	0.29655382	0.0
001	Nobody	54	15	1	1.0	53.0	0.8075243	0.0
001	Nobody	55	11	1	1.0	54.0	0.37356865	0.0
001	Nobody	56	13	1	1.0	55.0	0.29683414	0.0
001	Nobody	57	10	1	1.0	56.0	0.30606997	1.0
001	Nobody	58	4	1	1.0	57.0	0.76497483	1.0
001	Nobody	59	4	-1	1.0	58.0	0.14772624	0.0
001	Nobody	60	6	-1	1.0	59.0	0.6051516	1.0
001	Nobody	61	10	-1	1.0	60.0	0.38632932	1.0
001	Nobody	62	3	1	1.0	61.0	0.84503293	0.0
001	Nobody	63	5	-1	1.0	62.0	0.7343862	0.0
001	Nobody	64	6	1	1.0	63.0	0.8313742	1.0
001	Nobody	65	14	1	1.0	64.0	0.16159879	0.0
001	Nobody	66	8	-1	1.0	65.0	0.06645594	0.0
001	Nobody	67	18	1	1.0	66.0	0.853952	1.0
001	Nobody	68	19	1	1.0	67.0	0.09742819	0.0
001	Nobody	69	16	-1	1.0	68.0	0.8363742	1.0
001	Nobody	70	7	-1	1.0	69.0	0.07996425	0.0
001	Nobody	71	9	-1	1.0	70.0	0.9454952	1.0
001	Nobody	72	13	-1	1.0	71.0	0.9970507	0.0
001	Nobody	73	17	-1	1.0	72.0	0.14216556	1.0
001	Nobody	74	3	1	1.0	73.0	0.85254693	0.0
001	Nobody	75	19	-1	1.0	74.0	0.3352136	0.0
001	Nobody	76	9	1	1.0	75.0	0.040367816	1.0
001	Nobody	77	15	-1	1.0	76.0	0.112423204	0.0
001	Nobody	78	4	1	1.0	77.0	0.6862445	1.0
001	Nobody	79	8	1	1.0	78.0	0.54363245	0.0
001	Nobody	80	12	1	1.0	79.0	0.9217059	1.0
001	Nobody	81	10	-1	1.0	80.0	0.91288894	1.0
001	Nobody	82	5	1	1.0	81.0	0.17944431	1.0
001	Nobody	83	3	-1	1.0	82.0	0.015753616	1.0
001	Nobody	84	4	-1	1.0	83.0	0.8719892	0.0
001	Nobody	85	19	1	1.0	84.0	0.48358178	1.0
001	Nobody	86	7	1	1.0	85.0	0.38162032	0.0
001	Nobody	87	17	1	1.0	86.0	0.2025845	0.0
001	Nobody	88	14	-1	1.0	87.0	0.52210754	0.0
001	Nobody	89	11	1	1.0	88.0	0.31843433	1.0
001	Nobody	90	6	-1	1.0	89.0	0.6469136	1.0
001	Nobody	91	13	1	1.0	90.0	0.48569453	1.0
001	Nobody	92	15	1	1.0	91.0	0.91362643	0.0
001	Nobody	93	8	-1	1.0	92.0	0.1960945	1.0
001	Nobody	94	12	-1	1.0	93.0	0.46207792	1.0
001	Nobody	95	5	-1	1.0	94.0	0.2281863	0.0
001	Nobody	96	14	1	1.0	95.0	0.039222818	0.0
001	Nobody	97	6	1	1.0	96.0	0.3240271	0.0
001	Nobody	98	18	1	1.0	97.0	0.53467	0.0
001	Nobody	99	16	1	1.0	98.0	0.36044407	1.0
001	Nobody	100	18	-1	1.0	99.0	0.11849631	0.0
001	Nobody	101	11	-1	1.0	100.0	0.16413428	0.0
001	Nobody	102	10	1	1.0	101.0	0.19660369	0.0
001	Nobody	103	10	-1	1.0	102.0	0.68794614	1.0
001	Nobody	104	7	-1	1.0	103.0	0.36851886	1.0
001	Nobody	105	11	1	1.0	104.0	0.63786936	0.0
001	Nobody	106	3	1	1.0	105.0	0.03644945	1.0
001	Nobody	107	14	-1	1.0	106.0	0.80674404	1.0
001	Nobody	108	11	-1	1.0	107.0	0.44787028	0.0
001	Nobody	109	16	-1	1.0	108.0	0.22679636	1.0
001	Nobody	110	3	-1	1.0	109.0	0.3033576	1.0
001	Nobody	111	18	1	1.0	110.0	0.13976048	1.0
001	Nobody	112	4	-1	1.0	111.0	0.87130105	1.0
001	Nobody	113	17	-1	1.0	112.0	0.89417565	1.0
001	Nobody	114	19	-1	1.0	113.0	0.63136	1.0
001	Nobody	115	7	1	1.0	114.0	0.031737488	0.0
001	Nobody	116	15	1	1.0	115.0	0.5932035	0.0
001	Nobody	117	18	-1	1.0	116.0	0.99813783	1.0
001	Nobody	118	8	-1	1.0	117.0	0.784311	1.0
001	Nobody	119	19	1	1.0	118.0	0.5034491	1.0
001	Nobody	120	17	1	1.0	119.0	0.19930609	1.0
001	Nobody	121	9	1	1.0	120.0	0.06185331	1.0
001	Nobody	122	4	1	1.0	121.0	0.017152023	1.0
001	Nobody	123	12	1	1.0	122.0	0.0028125797	1.0
001	Nobody	124	6	-1	1.0	123.0	0.19395696	0.0
001	Nobody	125	15	-1	1.0	124.0	0.20608778	1.0
001	Nobody	126	16	1	1.0	125.0	0.49750715	1.0
001	Nobody	127	13	-1	1.0	126.0	0.72212213	1.0
001	Nobody	128	14	1	1.0	127.0	0.1485259	1.0
001	Nobody	129	12	-1	1.0	128.0	0.62140137	1.0
001	Nobody	130	10	1	1.0	129.0	0.27572274	1.0
001	Nobody	131	8	1	1.0	130.0	0.56706524	0.0
001	Nobody	132	6	1	1.0	131.0	0.429253	0.0
001	Nobody	133	13	1	1.0	132.0	0.4765718	0.0
001	Nobody	134	5	1	1.0	133.0	0.7193705	0.0
001	Nobody	135	5	-1	1.0	134.0	0.5318644	1.0
001	Nobody	136	9	-1	1.0	135.0	0.20138645	0.0
001	Nobody	137	17	-1	1.0	136.0	0.61192995	0.0
001	Nobody	138	12	1	1.0	137.0	0.78943807	0.0
001	Nobody	139	17	1	1.0	138.0	0.25098673	1.0
001	Nobody	140	19	-1	1.0	139.0	0.8587057	1.0
001	Nobody	141	5	-1	1.0	140.0	0.72778106	0.0
001	Nobody	142	4	-1	1.0	141.0	0.74172246	0.0
001	Nobody	143	4	1	1.0	142.0	0.52729005	0.0
001	Nobody	144	18	1	1.0	143.0	0.111939885	1.0
001	Nobody	145	8	1	1.0	144.0	0.5003707	1.0
001	Nobody	146	7	-1	1.0	145.0	0.59407735	0.0
001	Nobody	147	19	1	1.0	146.0	0.85098135	1.0
001	Nobody	148	3	1	1.0	147.0	0.0657732	0.0
001	Nobody	149	6	-1	1.0	148.0	0.9161401	0.0
001	Nobody	150	10	1	1.0	149.0	0.24168567	1.0
001	Nobody	151	10	-1	1.0	150.0	0.7766168	0.0
001	Nobody	152	9	1	1.0	151.0	0.5925686	1.0
001	Nobody	153	11	-1	1.0	152.0	0.07973801	0.0
001	Nobody	154	14	1	1.0	153.0	0.6437457	0.0
001	Nobody	155	15	-1	1.0	154.0	0.1275708	1.0
001	Nobody	156	11	1	1.0	155.0	0.34107122	1.0
001	Nobody	157	14	-1	1.0	156.0	0.24925318	0.0
001	Nobody	158	8	-1	1.0	157.0	0.29634014	0.0
001	Nobody	159	5	1	1.0	158.0	0.15535855	0.0
001	Nobody	160	18	-1	1.0	159.0	0.7961055	1.0
001	Nobody	161	13	-1	1.0	160.0	0.686236	0.0
001	Nobody	162	16	1	1.0	161.0	0.02373954	1.0
001	Nobody	163	12	-1	1.0	162.0	0.92520106	0.0
001	Nobody	164	6	1	1.0	163.0	0.33915713	1.0
001	Nobody	165	13	1	1.0	164.0	0.44151697	1.0
001	Nobody	166	16	-1	1.0	165.0	0.69509745	0.0
001	Nobody	167	15	1	1.0	166.0	0.5647347	0.0
001	Nobody	168	3	-1	1.0	167.0	0.009326959	0.0
001	Nobody	169	7	1	1.0	168.0	0.44047368	0.0
001	Nobody	170	9	-1	1.0	169.0	0.28092504	0.0
001	Nobody	171	17	1	1.0	170.0	0.07075066	0.0
001	Nobody	172	11	1	1.0	171.0	0.16762935	0.0
001	Nobody	173	4	-1	1.0	172.0	0.8330369	0.0
001	Nobody	174	6	1	1.0	173.0	0.93504876	0.0
001	Nobody	175	3	-1	1.0	174.0	0.3228809	1.0
001	Nobody	176	5	-1	1.0	175.0	0.5332024	0.0
001	Nobody	177	3	1	1.0	176.0	0.63837785	1.0
001	Nobody	178	9	1	1.0	177.0	0.19215257	1.0
001	Nobody	179	14	1	1.0	178.0	0.36652064	0.0
001	Nobody	180	18	1	1.0	179.0	0.0075788912	1.0
001	Nobody	181	13	-1	1.0	180.0	0.8346266	1.0
001	Nobody	182	10	-1	1.0	181.0	0.7773965	1.0
001	Nobody	183	8	-1	1.0	182.0	0.71377236	1.0
001	Nobody	184	4	1	1.0	183.0	0.83091867	0.0
001	Nobody	185	7	-1	1.0	184.0	0.6415519	1.0
001	Nobody	186	18	-1	1.0	185.0	0.79540515	1.0
001	Nobody	187	16	1	1.0	186.0	0.27323022	0.0
001	Nobody	188	13	1	1.0	187.0	0.7431585	1.0
001	Nobody	189	5	1	1.0	188.0	0.025881289	0.0
001	Nobody	190	14	-1	1.0	189.0	0.6783821	1.0
001	Nobody	191	8	1	1.0	190.0	0.9217741	0.0
001	Nobody	192	17	-1	1.0	191.0	0.54498845	1.0
001	Nobody	193	12	-1	1.0	192.0	0.20276013	1.0
001	Nobody	194	7	1	1.0	193.0	0.14732967	0.0
001	Nobody	195	6	-1	1.0	194.0	0.12837525	0.0
001	Nobody	196	19	-1	1.0	195.0	0.12777555	1.0
001	Nobody	197	9	-1	1.0	196.0	0.34431636	1.0
001	Nobody	198	16	-1	1.0	197.0	0.72449267	0.0
001	Nobody	199	19	1	1.0	198.0	0.29510224	1.0
001	Nobody	200	15	-1	1.0	199.0	0.17415963	1.0
001	Nobody	201	10	1	1.0	200.0	0.043773007	1.0
001	Nobody	202	12	1	1.0	201.0	0.73070127	0.0
001	Nobody	203	15	1	1.0	202.0	0.9947035	1.0
001	Nobody	204	11	-1	1.0	203.0	0.41676092	1.0
001	Nobody	205	17	1	1.0	204.0	0.13744481	1.0
001	Nobody	206	19	-1	1.0	205.0	0.6279735	1.0
001	Nobody	207	14	-1	1.0	206.0	0.39005047	1.0
001	Nobody	208	16	-1	1.0	207.0	0.7003638	1.0
001	Nobody	209	19	1	1.0	208.0	0.22100815	1.0
001	Nobody	210	18	1	1.0	209.0	0.45644683	1.0
001	Nobody	211	13	-1	1.0	210.0	0.12093231	1.0
001	Nobody	212	18	-1	1.0	211.0	0.6538197	1.0
001	Nobody	213	7	-1	1.0	212.0	0.97991055	1.0
001	Nobody	214	5	1	1.0	213.0	0.5535191	1.0
001	Nobody	215	15	1	1.0	214.0	0.2251127	1.0
001	Nobody	216	3	-1	1.0	215.0	0.47204658	1.0
001	Nobody	217	10	1	1.0	216.0	0.95603347	1.0
001	Nobody	218	8	1	1.0	217.0	0.3277957	0.0
001	Nobody	219	13	1	1.0	218.0	0.37068054	1.0
001	Nobody	220	9	1	1.0	219.0	0.4639322	0.0
001	Nobody	221	10	-1	1.0	220.0	0.22666787	1.0
001	Nobody	222	12	-1	1.0	221.0	0.91237694	1.0
001	Nobody	223	7	1	1.0	222.0	0.74799085	1.0
001	Nobody	224	12	1	1.0	223.0	0.31842828	0.0
001	Nobody	225	6	1	1.0	224.0	0.23820731	1.0
001	Nobody	226	9	-1	1.0	225.0	0.3298766	1.0
001	Nobody	227	3	1	1.0	226.0	0.9966804	0.0
001	Nobody	228	11	-1	1.0	227.0	0.7547077	0.0
001	Nobody	229	5	-1	1.0	228.0	0.1299715	0.0
001	Nobody	230	14	1	1.0	229.0	0.39114353	1.0
001	Nobody	231	11	1	1.0	230.0	0.35433593	0.0
001	Nobody	232	16	1	1.0	231.0	0.17156276	0.0
001	Nobody	233	15	-1	1.0	232.0	0.40144807	1.0
001	Nobody	234	17	-1	1.0	233.0	0.7396918	0.0
001	Nobody	235	6	-1	1.0	234.0	0.82088023	1.0
001	Nobody	236	4	-1	1.0	235.0	0.3274711	1.0
001	Nobody	237	4	1	1.0	236.0	0.34560448	0.0
001	Nobody	238	8	-1	1.0	237.0	0.76812375	1.0
001	Nobody	239	12	1	1.0	238.0	0.25696015	1.0
001	Nobody	240	8	-1	1.0	239.0	0.7833687	1.0
001	Nobody	241	19	-1	1.0	240.0	0.17811365	1.0
001	Nobody	242	5	-1	1.0	241.0	0.8583915	0.0
001	Nobody	243	14	1	1.0	242.0	0.11394564	1.0
001	Nobody	244	4	1	1.0	243.0	0.89539933	1.0
001	Nobody	245	18	1	1.0	244.0	0.35513714	0.0
001	Nobody	246	15	1	1.0	245.0	0.90185887	0.0
001	Nobody	247	9	1	1.0	246.0	0.88005555	1.0
001	Nobody	248	7	1	1.0	247.0	0.18145497	1.0
001	Nobody	249	17	-1	1.0	248.0	0.73048055	0.0
001	Nobody	250	10	-1	1.0	249.0	0.13796422	1.0
001	Nobody	251	4	-1	1.0	250.0	0.517625	0.0
001	Nobody	252	16	-1	1.0	251.0	0.7772019	0.0
001	Nobody	253	3	-1	1.0	252.0	0.1164934	1.0
001	Nobody	254	6	1	1.0	253.0	0.7202395	1.0
001	Nobody	255	18	-1	1.0	254.0	0.11904698	1.0
001	Nobody	256	10	1	1.0	255.0	0.22049412	0.0
001	Nobody	257	19	1	1.0	256.0	0.35582575	1.0
001	Nobody	258	12	-1	1.0	257.0	0.42155135	1.0
001	Nobody	259	16	1	1.0	258.0	0.5210023	0.0
001	Nobody	260	13	-1	1.0	259.0	0.18447974	1.0
001	Nobody	261	11	-1	1.0	260.0	0.50020164	0.0
001	Nobody	262	15	-1	1.0	261.0	0.7676814	0.0
001	Nobody	263	6	-1	1.0	262.0	0.45957524	1.0
001	Nobody	264	3	1	1.0	263.0	0.34972104	0.0
001	Nobody	265	9	-1	1.0	264.0	0.93604845	1.0
001	Nobody	266	14	-1	1.0	265.0	0.9458875	1.0
001	Nobody	267	8	1	1.0	266.0	0.49114746	0.0
001	Nobody	268	13	1	1.0	267.0	0.5894252	1.0
001	Nobody	269	11	1	1.0	268.0	0.6692511	0.0
001	Nobody	270	17	1	1.0	269.0	0.25603774	0.0
001	Nobody	271	7	-1	1.0	270.0	0.3203057	0.0
001	Nobody	272	5	1	1.0	271.0	0.07086177	0.0
001	Nobody	273	3	-1	1.0	272.0	0.524438	0.0
001	Nobody	274	9	1	1.0	273.0	0.8761229	1.0
001	Nobody	275	10	1	1.0	274.0	0.5648687	0.0
001	Nobody	276	18	1	1.0	275.0	0.61865205	1.0
001	Nobody	277	18	-1	1.0	276.0	0.7128102	0.0
001	Nobody	278	11	1	1.0	277.0	0.7110783	1.0
001	Nobody	279	9	-1	1.0	278.0	0.18091501	1.0
001	Nobody	280	17	-1	1.0	279.0	0.43149826	1.0
001	Nobody	281	5	1	1.0	280.0	0.5015925	1.0
001	Nobody	282	8	-1	1.0	281.0	0.81928027	0.0
001	Nobody	283	12	1	1.0	282.0	0.8063295	0.0
001	Nobody	284	13	-1	1.0	283.0	0.39816338	1.0
001	Nobody	285	19	-1	1.0	284.0	0.7945719	0.0
001	Nobody	286	13	1	1.0	285.0	0.25513718	1.0
001	Nobody	287	11	-1	1.0	286.0	0.8302392	1.0
001	Nobody	288	5	-1	1.0	287.0	0.06749164	1.0
001	Nobody	289	8	1	1.0	288.0	0.7405768	1.0
001	Nobody	290	15	1	1.0	289.0	0.6124785	1.0
001	Nobody	291	7	1	1.0	290.0	0.8011151	0.0
001	Nobody	292	15	-1	1.0	291.0	0.73466593	0.0
001	Nobody	293	17	1	1.0	292.0	0.50017995	0.0
001	Nobody	294	19	1	1.0	293.0	0.7549713	1.0
001	Nobody	295	4	1	1.0	294.0	0.066814706	0.0
001	Nobody	296	12	-1	1.0	295.0	0.2484032	0.0
001	Nobody	297	6	-1	1.0	296.0	0.30186585	0.0
001	Nobody	298	14	1	1.0	297.0	0.13834128	0.0
001	Nobody	299	6	1	1.0	298.0	0.53105885	1.0
001	Nobody	300	14	-1	1.0	299.0	0.9716971	0.0
001	Nobody	301	16	-1	1.0	300.0	0.64010614	1.0
001	Nobody	302	16	1	1.0	301.0	0.40025312	0.0
001	Nobody	303	10	-1	1.0	302.0	0.9102145	1.0
001	Nobody	304	4	-1	1.0	303.0	0.64447814	1.0
001	Nobody	305	7	-1	1.0	304.0	0.97072846	0.0
001	Nobody	306	3	1	1.0	305.0	0.03479496	1.0
001	Nobody	307	3	1	1.0	306.0	0.031525042	1.0
001	Nobody	308	15	-1	1.0	307.0	0.17426984	0.0
001	Nobody	309	14	-1	1.0	308.0	0.7065367	0.0
001	Nobody	310	9	-1	1.0	309.0	0.5928922	1.0
001	Nobody	311	11	1	1.0	310.0	0.013059502	0.0
001	Nobody	312	18	-1	1.0	311.0	0.57822007	0.0
001	Nobody	313	10	-1	1.0	312.0	0.99410146	1.0
001	Nobody	314	13	-1	1.0	313.0	0.8971819	1.0
001	Nobody	315	6	1	1.0	314.0	0.40154067	0.0
001	Nobody	316	4	1	1.0	315.0	0.4931239	0.0
001	Nobody	317	8	-1	1.0	316.0	0.34980938	0.0
001	Nobody	318	12	-1	1.0	317.0	0.12897082	1.0
001	Nobody	319	18	1	1.0	318.0	0.93162084	1.0
001	Nobody	320	10	1	1.0	319.0	0.8642667	1.0
001	Nobody	321	5	-1	1.0	320.0	0.88112205	1.0
001	Nobody	322	12	1	1.0	321.0	0.6456444	0.0
001	Nobody	323	5	1	1.0	322.0	0.38889712	1.0
001	Nobody	324	4	-1	1.0	323.0	0.15613484	0.0
001	Nobody	325	6	-1	1.0	324.0	0.1711484	0.0
001	Nobody	326	14	1	1.0	325.0	0.25594693	0.0
001	Nobody	327	9	1	1.0	326.0	0.5401239	1.0
001	Nobody	328	17	-1	1.0	327.0	0.8568794	1.0
001	Nobody	329	13	1	1.0	328.0	0.47561786	0.0
001	Nobody	330	16	-1	1.0	329.0	0.75069547	0.0
001	Nobody	331	7	-1	1.0	330.0	0.66464543	0.0
001	Nobody	332	17	1	1.0	331.0	0.48621547	1.0
001	Nobody	333	8	1	1.0	332.0	0.3681696	1.0
001	Nobody	334	7	1	1.0	333.0	0.2736772	1.0
001	Nobody	335	15	1	1.0	334.0	0.8358671	0.0
001	Nobody	336	19	-1	1.0	335.0	0.37846968	1.0
001	Nobody	337	19	1	1.0	336.0	0.26281396	1.0
001	Nobody	338	16	1	1.0	337.0	0.14124292	1.0
001	Nobody	339	11	-1	1.0	338.0	0.88628924	1.0
001	Nobody	340	3	-1	1.0	339.0	0.57768977	0.0
﻿session	participant	TrialNumber	circleRadius	direction	ran	order	RT	choice
001	Nobody	1	18	-1	1.0	0.0	0.5683824	1.0
001	Nobody	2	8	1	1.0	1.0	0.5653534	0.0
001	Nobody	3	8	-1	1.0	2.0	0.51523674	0.0
001	Nobody	4	18	1	1.0	3.0	0.08888758	0.0
001	Nobody	5	3	-1	1.0	4.0	0.81837994	1.0
001	Nobody	6	3	1	1.0	5.0	0.23581891	0.0
001	Nobody	7	13	-1	1.0	6.0	0.32546747	1.0
001	Nobody	8	13	1	1.0	7.0	0.1441673	0.0
001	Nobody	9	18	-1	1.0	8.0	0.5290553	0.0
001	Nobody	10	3	-1	1.0	9.0	0.6597339	0.0
001	Nobody	11	18	1	1.0	10.0	0.2509484	0.0
001	Nobody	12	13	1	1.0	11.0	0.5204288	0.0
001	Nobody	13	8	-1	1.0	12.0	0.65140635	0.0
001	Nobody	14	3	1	1.0	13.0	0.5064534	1.0
001	Nobody	15	8	1	1.0	14.0	0.744118	1.0
001	Nobody	16	13	-1	1.0	15.0	0.0521693	1.0
001	Nobody	17	18	-1	1.0	16.0	0.041492	0.0
001	Nobody	18	8	-1	1.0	17.0	0.8702344	0.0
001	Nobody	19	18	1	1.0	18.0	0.15318066	0.0
001	Nobody	20	13	-1	1.0	19.0	0.33653527	0.0
001	Nobody	21	3	-1	1.0	20.0	0.22327347	0.0
001	Nobody	22	13	1	1.0	21.0	0.6327743	1.0
001	Nobody	23	3	1	1.0	22.0	0.68439233	1.0
001	Nobody	24	8	1	1.0	23.0	0.15626237	0.0
001	Nobody	25	18	1	1.0	24.0	0.863915	1.0
001	Nobody	26	3	1	1.0	25.0	0.60310906	1.0
001	Nobody	27	8	1	1.0	26.0	0.83419514	0.0
001	Nobody	28	3	-1	1.0	27.0	0.54506934	0.0
001	Nobody	29	18	-1	1.0	28.0	0.8995461	0.0
001	Nobody	30	13	-1	1.0	29.0	0.27216887	1.0
001	Nobody	31	8	-1	1.0	30.0	0.03581865	1.0
001	Nobody	32	13	1	1.0	31.0	0.13179035	1.0
001	Nobody	33	18	-1	1.0	32.0	0.50027645	0.0
001	Nobody	34	8	1	1.0	33.0	0.56377757	1.0
001	Nobody	35	13	-1	1.0	34.0	0.84474766	1.0
001	Nobody	36	13	1	1.0	35.0	0.6849161	0.0
001	Nobody	37	8	-1	1.0	36.0	0.014640706	1.0
001	Nobody	38	3	1	1.0	37.0	0.35168815	1.0
001	Nobody	39	3	-1	1.0	38.0	0.020262094	1.0
001	Nobody	40	18	1	1.0	39.0	0.8093484	1.0
001	Nobody	41	8	-1	1.0	40.0	0.41666713	0.0
001	Nobody	42	13	-1	1.0	41.0	0.006463724	0.0
001	Nobody	43	18	1	1.0	42.0	0.11691634	1.0
001	Nobody	44	3	1	1.0	43.0	0.14391032	1.0
001	Nobody	45	8	1	1.0	44.0	0.058799166	1.0
001	Nobody	46	3	-1	1.0	45.0	0.07524715	1.0
001	Nobody	47	18	-1	1.0	46.0	0.11048876	0.0
001	Nobody	48	13	1	1.0	47.0	0.63222027	0.0
001	Nobody	49	3	1	1.0	48.0	0.32239714	1.0
001	Nobody	50	13	1	1.0	49.0	0.75579447	0.0
001	Nobody	51	8	1	1.0	50.0	0.8336121	0.0
001	Nobody	52	8	-1	1.0	51.0	0.64348507	0.0
001	Nobody	53	18	1	1.0	52.0	0.9102269	1.0
001	Nobody	54	13	-1	1.0	53.0	0.7402373	0.0
001	Nobody	55	3	-1	1.0	54.0	0.33188596	0.0
001	Nobody	56	18	-1	1.0	55.0	0.29518417	1.0
001	Nobody	57	18	1	1.0	56.0	0.34631005	0.0
001	Nobody	58	3	1	1.0	57.0	0.47542995	0.0
001	Nobody	59	18	-1	1.0	58.0	0.99514705	1.0
001	Nobody	60	8	1	1.0	59.0	0.2436861	1.0
001	Nobody	61	13	-1	1.0	60.0	0.21194969	0.0
001	Nobody	62	13	1	1.0	61.0	0.67047375	0.0
001	Nobody	63	3	-1	1.0	62.0	0.58082837	0.0
001	Nobody	64	8	-1	1.0	63.0	0.66187257	0.0
001	Nobody	65	13	-1	1.0	64.0	0.6688925	1.0
001	Nobody	66	18	-1	1.0	65.0	0.44207016	1.0
001	Nobody	67	3	-1	1.0	66.0	0.059486523	1.0
001	Nobody	68	8	-1	1.0	67.0	0.9179167	0.0
001	Nobody	69	18	1	1.0	68.0	0.89982903	1.0
001	Nobody	70	3	1	1.0	69.0	0.77103204	0.0
001	Nobody	71	8	1	1.0	70.0	0.25986624	0.0
001	Nobody	72	13	1	1.0	71.0	0.75682306	1.0
001	Nobody	73	18	-1	1.0	72.0	0.99790853	0.0
001	Nobody	74	13	-1	1.0	73.0	0.5878529	1.0
001	Nobody	75	8	-1	1.0	74.0	0.08782267	1.0
001	Nobody	76	3	1	1.0	75.0	0.84815973	0.0
001	Nobody	77	8	1	1.0	76.0	0.94209945	0.0
001	Nobody	78	3	-1	1.0	77.0	0.09665288	1.0
001	Nobody	79	18	1	1.0	78.0	0.85554945	1.0
001	Nobody	80	13	1	1.0	79.0	0.08357947	1.0
﻿session	participant	TrialNumber	circleRadius	direction	ran	order	RT	choice
001	Nobody	1	8	-1	1.0	0.0	0.10744279	0.0
001	Nobody	2	18	1	1.0	1.0	0.3088427	0.0
001	Nobody	3	13	1	1.0	2.0	0.24544853	1.0
001	Nobody	4	18	-1	1.0	3.0	0.30605522	0.0
001	Nobody	5	3	-1	1.0	4.0	0.38496307	1.0
001	Nobody	6	13	-1	1.0	5.0	0.54432386	1.0
001	Nobody	7	3	1	1.0	6.0	0.50950974	1.0
001	Nobody	8	8	1	1.0	7.0	0.51196694	1.0
001	Nobody	9	3	1	1.0	8.0	0.72865355	0.0
001	Nobody	10	18	-1	1.0	9.0	0.286115	0.0
001	Nobody	11	13	1	1.0	10.0	0.33280185	0.0
001	Nobody	12	8	1	1.0	11.0	0.2735934	0.0
001	Nobody	13	13	-1	1.0	12.0	0.58415437	1.0
001	Nobody	14	18	1	1.0	13.0	0.35688883	0.0
001	Nobody	15	3	-1	1.0	14.0	0.20971818	0.0
001	Nobody	16	8	-1	1.0	15.0	0.26873454	0.0
001	Nobody	17	13	-1	1.0	16.0	0.23566024	1.0
001	Nobody	18	18	-1	1.0	17.0	0.0070801745	0.0
001	Nobody	19	8	-1	1.0	18.0	0.945129	0.0
001	Nobody	20	3	-1	1.0	19.0	0.20028977	0.0
001	Nobody	21	8	1	1.0	20.0	0.2226344	0.0
001	Nobody	22	18	1	1.0	21.0	0.8176704	0.0
001	Nobody	23	13	1	1.0	22.0	0.21642727	1.0
001	Nobody	24	3	1	1.0	23.0	0.6399242	1.0
001	Nobody	25	8	-1	1.0	24.0	0.38858137	0.0
001	Nobody	26	3	-1	1.0	25.0	0.0055975136	0.0
001	Nobody	27	18	-1	1.0	26.0	0.22779058	1.0
001	Nobody	28	8	1	1.0	27.0	0.06047781	1.0
001	Nobody	29	3	1	1.0	28.0	0.8273421	1.0
001	Nobody	30	18	1	1.0	29.0	0.40089074	0.0
001	Nobody	31	13	-1	1.0	30.0	0.60591257	1.0
001	Nobody	32	13	1	1.0	31.0	0.65943724	1.0
001	Nobody	33	8	1	1.0	32.0	0.49207687	1.0
001	Nobody	34	3	-1	1.0	33.0	0.8341602	1.0
001	Nobody	35	18	-1	1.0	34.0	0.5336942	1.0
001	Nobody	36	8	-1	1.0	35.0	0.88335806	1.0
001	Nobody	37	3	1	1.0	36.0	0.669424	1.0
001	Nobody	38	18	1	1.0	37.0	0.058146458	1.0
001	Nobody	39	13	1	1.0	38.0	0.83975506	1.0
001	Nobody	40	13	-1	1.0	39.0	0.9557217	1.0
001	Nobody	41	18	-1	1.0	40.0	0.87679285	1.0
001	Nobody	42	8	-1	1.0	41.0	0.28114927	1.0
001	Nobody	43	3	1	1.0	42.0	0.6178717	0.0
001	Nobody	44	3	-1	1.0	43.0	0.9194474	1.0
001	Nobody	45	13	-1	1.0	44.0	0.931208	1.0
001	Nobody	46	18	1	1.0	45.0	0.3571336	0.0
001	Nobody	47	8	1	1.0	46.0	0.69465524	0.0
001	Nobody	48	13	1	1.0	47.0	0.55986917	0.0
001	Nobody	49	13	1	1.0	48.0	0.48893696	0.0
001	Nobody	50	8	1	1.0	49.0	0.6243798	0.0
001	Nobody	51	8	-1	1.0	50.0	0.69113016	1.0
001	Nobody	52	3	-1	1.0	51.0	0.74661005	1.0
001	Nobody	53	18	1	1.0	52.0	0.9661612	1.0
001	Nobody	54	3	1	1.0	53.0	0.82038105	0.0
001	Nobody	55	13	-1	1.0	54.0	0.6907066	0.0
001	Nobody	56	18	-1	1.0	55.0	0.69214404	0.0
001	Nobody	57	8	1	1.0	56.0	0.02718199	1.0
001	Nobody	58	8	-1	1.0	57.0	0.09086685	0.0
001	Nobody	59	13	-1	1.0	58.0	0.35083038	0.0
001	Nobody	60	3	1	1.0	59.0	0.75540006	1.0
001	Nobody	61	13	1	1.0	60.0	0.2090566	0.0
001	Nobody	62	3	-1	1.0	61.0	0.36344233	0.0
001	Nobody	63	18	1	1.0	62.0	0.9284152	1.0
001	Nobody	64	18	-1	1.0	63.0	0.13753481	0.0
001	Nobody	65	8	1	1.0	64.0	0.34614742	0.0
001	Nobody	66	3	1	1.0	65.0	0.7161634	0.0
001	Nobody	67	3	-1	1.0	66.0	0.36850065	1.0
001	Nobody	68	18	-1	1.0	67.0	0.9558123	1.0
001	Nobody	69	18	1	1.0	68.0	0.038329452	0.0
001	Nobody	70	8	-1	1.0	69.0	0.4894272	1.0
001	Nobody	71	13	1	1.0	70.0	0.8702325	1.0
001	Nobody	72	13	-1	1.0	71.0	0.36526805	1.0
001	Nobody	73	3	-1	1.0	72.0	0.9423794	0.0
001	Nobody	74	18	1	1.0	73.0	0.6697926	0.0
001	Nobody	75	8	1	1.0	74.0	0.48637804	1.0
001	Nobody	76	13	-1	1.0	75.0	0.47680333	1.0
001	Nobody	77	18	-1	1.0	76.0	0.617762	0.0
001	Nobody	78	3	1	1.0	77.0	0.40171334	0.0
001	Nobody	79	13	1	1.0	78.0	0.15726942	1.0
001	Nobody	80	8	-1	1.0	79.0	0.73269916	0.0
